trials_120.thisRepN,trials_120.thisTrialN,trials_120.thisN,trials_120.thisIndex,trials_120.thisTrial,withinATrial_fill_4_sec.thisRepN,withinATrial_fill_4_sec.thisTrialN,withinATrial_fill_4_sec.thisN,withinATrial_fill_4_sec.thisIndex,withinATrial_fill_4_sec.thisTrial,FrameTimeStamps,frameNumber,date,frameRate,expName,session,participant,
0,0,0,0,None,0,0,0,0,None,1404598435.02500,8,2014_Jul_05_1513,59.8313344,SSVP5_75,001,001,
0,0,0,0,None,1,0,1,0,None,1404598435.20600,8,2014_Jul_05_1513,59.8313344,SSVP5_75,001,001,
0,0,0,0,None,2,0,2,0,None,1404598435.36400,8,2014_Jul_05_1513,59.8313344,SSVP5_75,001,001,
0,0,0,0,None,3,0,3,0,None,1404598435.49800,8,2014_Jul_05_1513,59.8313344,SSVP5_75,001,001,
0,0,0,0,None,4,0,4,0,None,1404598435.65600,8,2014_Jul_05_1513,59.8313344,SSVP5_75,001,001,
0,0,0,0,None,5,0,5,0,None,1404598435.81700,8,2014_Jul_05_1513,59.8313344,SSVP5_75,001,001,
0,0,0,0,None,6,0,6,0,None,1404598435.98300,8,2014_Jul_05_1513,59.8313344,SSVP5_75,001,001,
0,0,0,0,None,7,0,7,0,None,1404598436.11500,8,2014_Jul_05_1513,59.8313344,SSVP5_75,001,001,
0,0,0,0,None,8,0,8,0,None,1404598436.25000,8,2014_Jul_05_1513,59.8313344,SSVP5_75,001,001,
0,0,0,0,None,9,0,9,0,None,1404598436.38300,8,2014_Jul_05_1513,59.8313344,SSVP5_75,001,001,
0,0,0,0,None,10,0,10,0,None,1404598436.51600,8,2014_Jul_05_1513,59.8313344,SSVP5_75,001,001,
0,0,0,0,None,11,0,11,0,None,1404598436.65100,8,2014_Jul_05_1513,59.8313344,SSVP5_75,001,001,
0,0,0,0,None,12,0,12,0,None,1404598436.78300,8,2014_Jul_05_1513,59.8313344,SSVP5_75,001,001,
0,0,0,0,None,13,0,13,0,None,1404598436.91700,8,2014_Jul_05_1513,59.8313344,SSVP5_75,001,001,
0,0,0,0,None,14,0,14,0,None,1404598437.05200,8,2014_Jul_05_1513,59.8313344,SSVP5_75,001,001,
0,0,0,0,None,15,0,15,0,None,1404598437.18400,8,2014_Jul_05_1513,59.8313344,SSVP5_75,001,001,
0,0,0,0,None,16,0,16,0,None,1404598437.32300,8,2014_Jul_05_1513,59.8313344,SSVP5_75,001,001,
0,0,0,0,None,17,0,17,0,None,1404598437.45500,8,2014_Jul_05_1513,59.8313344,SSVP5_75,001,001,
0,0,0,0,None,18,0,18,0,None,1404598437.58900,8,2014_Jul_05_1513,59.8313344,SSVP5_75,001,001,
0,0,0,0,None,19,0,19,0,None,1404598437.72000,8,2014_Jul_05_1513,59.8313344,SSVP5_75,001,001,
0,0,0,0,None,20,0,20,0,None,1404598437.85200,8,2014_Jul_05_1513,59.8313344,SSVP5_75,001,001,
0,0,0,0,None,21,0,21,0,None,1404598437.98600,8,2014_Jul_05_1513,59.8313344,SSVP5_75,001,001,
0,0,0,0,None,22,0,22,0,None,1404598438.12000,8,2014_Jul_05_1513,59.8313344,SSVP5_75,001,001,
0,0,0,0,None,23,0,23,0,None,1404598438.25700,8,2014_Jul_05_1513,59.8313344,SSVP5_75,001,001,
0,0,0,0,None,24,0,24,0,None,1404598438.38800,8,2014_Jul_05_1513,59.8313344,SSVP5_75,001,001,
0,0,0,0,None,25,0,25,0,None,1404598438.52400,8,2014_Jul_05_1513,59.8313344,SSVP5_75,001,001,
0,0,0,0,None,26,0,26,0,None,1404598438.65400,8,2014_Jul_05_1513,59.8313344,SSVP5_75,001,001,
0,0,0,0,None,27,0,27,0,None,1404598438.78900,8,2014_Jul_05_1513,59.8313344,SSVP5_75,001,001,
0,0,0,0,None,28,0,28,0,None,1404598438.92100,8,2014_Jul_05_1513,59.8313344,SSVP5_75,001,001,
0,0,0,0,None,29,0,29,0,None,1404598439.05400,8,2014_Jul_05_1513,59.8313344,SSVP5_75,001,001,
0,0,0,0,None,,,,,,,,2014_Jul_05_1513,59.8313344,SSVP5_75,001,001,
1,0,1,0,None,0,0,0,0,None,1404598441.34200,8,2014_Jul_05_1513,59.8313344,SSVP5_75,001,001,
1,0,1,0,None,1,0,1,0,None,1404598441.48300,8,2014_Jul_05_1513,59.8313344,SSVP5_75,001,001,
1,0,1,0,None,2,0,2,0,None,1404598441.60900,8,2014_Jul_05_1513,59.8313344,SSVP5_75,001,001,
1,0,1,0,None,3,0,3,0,None,1404598441.74500,8,2014_Jul_05_1513,59.8313344,SSVP5_75,001,001,
1,0,1,0,None,4,0,4,0,None,1404598441.87600,8,2014_Jul_05_1513,59.8313344,SSVP5_75,001,001,
1,0,1,0,None,5,0,5,0,None,1404598442.01100,8,2014_Jul_05_1513,59.8313344,SSVP5_75,001,001,
1,0,1,0,None,6,0,6,0,None,1404598442.14700,8,2014_Jul_05_1513,59.8313344,SSVP5_75,001,001,
1,0,1,0,None,7,0,7,0,None,1404598442.27800,8,2014_Jul_05_1513,59.8313344,SSVP5_75,001,001,
1,0,1,0,None,8,0,8,0,None,1404598442.41100,8,2014_Jul_05_1513,59.8313344,SSVP5_75,001,001,
1,0,1,0,None,9,0,9,0,None,1404598442.54400,8,2014_Jul_05_1513,59.8313344,SSVP5_75,001,001,
1,0,1,0,None,10,0,10,0,None,1404598442.67900,8,2014_Jul_05_1513,59.8313344,SSVP5_75,001,001,
1,0,1,0,None,11,0,11,0,None,1404598442.81500,8,2014_Jul_05_1513,59.8313344,SSVP5_75,001,001,
1,0,1,0,None,12,0,12,0,None,1404598442.94500,8,2014_Jul_05_1513,59.8313344,SSVP5_75,001,001,
1,0,1,0,None,13,0,13,0,None,1404598443.08000,8,2014_Jul_05_1513,59.8313344,SSVP5_75,001,001,
1,0,1,0,None,14,0,14,0,None,1404598443.21600,8,2014_Jul_05_1513,59.8313344,SSVP5_75,001,001,
1,0,1,0,None,15,0,15,0,None,1404598443.34700,8,2014_Jul_05_1513,59.8313344,SSVP5_75,001,001,
1,0,1,0,None,16,0,16,0,None,1404598443.48300,8,2014_Jul_05_1513,59.8313344,SSVP5_75,001,001,
1,0,1,0,None,17,0,17,0,None,1404598443.61300,8,2014_Jul_05_1513,59.8313344,SSVP5_75,001,001,
1,0,1,0,None,18,0,18,0,None,1404598443.74800,8,2014_Jul_05_1513,59.8313344,SSVP5_75,001,001,
1,0,1,0,None,19,0,19,0,None,1404598443.88000,8,2014_Jul_05_1513,59.8313344,SSVP5_75,001,001,
1,0,1,0,None,20,0,20,0,None,1404598444.01400,8,2014_Jul_05_1513,59.8313344,SSVP5_75,001,001,
1,0,1,0,None,21,0,21,0,None,1404598444.14700,8,2014_Jul_05_1513,59.8313344,SSVP5_75,001,001,
1,0,1,0,None,22,0,22,0,None,1404598444.28100,8,2014_Jul_05_1513,59.8313344,SSVP5_75,001,001,
1,0,1,0,None,23,0,23,0,None,1404598444.41600,8,2014_Jul_05_1513,59.8313344,SSVP5_75,001,001,
1,0,1,0,None,24,0,24,0,None,1404598444.54800,8,2014_Jul_05_1513,59.8313344,SSVP5_75,001,001,
1,0,1,0,None,25,0,25,0,None,1404598444.68200,8,2014_Jul_05_1513,59.8313344,SSVP5_75,001,001,
1,0,1,0,None,26,0,26,0,None,1404598444.81500,8,2014_Jul_05_1513,59.8313344,SSVP5_75,001,001,
1,0,1,0,None,27,0,27,0,None,1404598444.95300,8,2014_Jul_05_1513,59.8313344,SSVP5_75,001,001,
1,0,1,0,None,28,0,28,0,None,1404598445.08300,8,2014_Jul_05_1513,59.8313344,SSVP5_75,001,001,
1,0,1,0,None,29,0,29,0,None,1404598445.21600,8,2014_Jul_05_1513,59.8313344,SSVP5_75,001,001,
1,0,1,0,None,,,,,,,,2014_Jul_05_1513,59.8313344,SSVP5_75,001,001,
2,0,2,0,None,0,0,0,0,None,1404598447.35400,8,2014_Jul_05_1513,59.8313344,SSVP5_75,001,001,
2,0,2,0,None,1,0,1,0,None,1404598447.48800,8,2014_Jul_05_1513,59.8313344,SSVP5_75,001,001,
2,0,2,0,None,2,0,2,0,None,1404598447.62200,8,2014_Jul_05_1513,59.8313344,SSVP5_75,001,001,
2,0,2,0,None,3,0,3,0,None,1404598447.75500,8,2014_Jul_05_1513,59.8313344,SSVP5_75,001,001,
2,0,2,0,None,4,0,4,0,None,1404598447.89000,8,2014_Jul_05_1513,59.8313344,SSVP5_75,001,001,
2,0,2,0,None,5,0,5,0,None,1404598448.02600,8,2014_Jul_05_1513,59.8313344,SSVP5_75,001,001,
2,0,2,0,None,6,0,6,0,None,1404598448.15600,8,2014_Jul_05_1513,59.8313344,SSVP5_75,001,001,
2,0,2,0,None,7,0,7,0,None,1404598448.29100,8,2014_Jul_05_1513,59.8313344,SSVP5_75,001,001,
2,0,2,0,None,8,0,8,0,None,1404598448.42300,8,2014_Jul_05_1513,59.8313344,SSVP5_75,001,001,
2,0,2,0,None,9,0,9,0,None,1404598448.55700,8,2014_Jul_05_1513,59.8313344,SSVP5_75,001,001,
2,0,2,0,None,10,0,10,0,None,1404598448.69000,8,2014_Jul_05_1513,59.8313344,SSVP5_75,001,001,
2,0,2,0,None,11,0,11,0,None,1404598448.82400,8,2014_Jul_05_1513,59.8313344,SSVP5_75,001,001,
2,0,2,0,None,12,0,12,0,None,1404598448.95900,8,2014_Jul_05_1513,59.8313344,SSVP5_75,001,001,
2,0,2,0,None,13,0,13,0,None,1404598449.09100,8,2014_Jul_05_1513,59.8313344,SSVP5_75,001,001,
2,0,2,0,None,14,0,14,0,None,1404598449.22500,8,2014_Jul_05_1513,59.8313344,SSVP5_75,001,001,
2,0,2,0,None,15,0,15,0,None,1404598449.36000,8,2014_Jul_05_1513,59.8313344,SSVP5_75,001,001,
2,0,2,0,None,16,0,16,0,None,1404598449.49200,8,2014_Jul_05_1513,59.8313344,SSVP5_75,001,001,
2,0,2,0,None,17,0,17,0,None,1404598449.62500,8,2014_Jul_05_1513,59.8313344,SSVP5_75,001,001,
2,0,2,0,None,18,0,18,0,None,1404598449.75900,8,2014_Jul_05_1513,59.8313344,SSVP5_75,001,001,
2,0,2,0,None,19,0,19,0,None,1404598449.89300,8,2014_Jul_05_1513,59.8313344,SSVP5_75,001,001,
2,0,2,0,None,20,0,20,0,None,1404598450.02800,8,2014_Jul_05_1513,59.8313344,SSVP5_75,001,001,
2,0,2,0,None,21,0,21,0,None,1404598450.21000,8,2014_Jul_05_1513,59.8313344,SSVP5_75,001,001,
2,0,2,0,None,22,0,22,0,None,1404598450.34700,8,2014_Jul_05_1513,59.8313344,SSVP5_75,001,001,
2,0,2,0,None,23,0,23,0,None,1404598450.48200,8,2014_Jul_05_1513,59.8313344,SSVP5_75,001,001,
2,0,2,0,None,24,0,24,0,None,1404598450.61500,8,2014_Jul_05_1513,59.8313344,SSVP5_75,001,001,
2,0,2,0,None,25,0,25,0,None,1404598450.74500,8,2014_Jul_05_1513,59.8313344,SSVP5_75,001,001,
2,0,2,0,None,26,0,26,0,None,1404598450.88000,8,2014_Jul_05_1513,59.8313344,SSVP5_75,001,001,
2,0,2,0,None,27,0,27,0,None,1404598451.01200,8,2014_Jul_05_1513,59.8313344,SSVP5_75,001,001,
2,0,2,0,None,28,0,28,0,None,1404598451.14600,8,2014_Jul_05_1513,59.8313344,SSVP5_75,001,001,
2,0,2,0,None,29,0,29,0,None,1404598451.28100,8,2014_Jul_05_1513,59.8313344,SSVP5_75,001,001,
2,0,2,0,None,,,,,,,,2014_Jul_05_1513,59.8313344,SSVP5_75,001,001,
3,0,3,0,None,0,0,0,0,None,1404598453.43200,8,2014_Jul_05_1513,59.8313344,SSVP5_75,001,001,
3,0,3,0,None,1,0,1,0,None,1404598453.56600,8,2014_Jul_05_1513,59.8313344,SSVP5_75,001,001,
3,0,3,0,None,2,0,2,0,None,1404598453.70100,8,2014_Jul_05_1513,59.8313344,SSVP5_75,001,001,
3,0,3,0,None,3,0,3,0,None,1404598453.83700,8,2014_Jul_05_1513,59.8313344,SSVP5_75,001,001,
3,0,3,0,None,4,0,4,0,None,1404598453.96800,8,2014_Jul_05_1513,59.8313344,SSVP5_75,001,001,
3,0,3,0,None,5,0,5,0,None,1404598454.10100,8,2014_Jul_05_1513,59.8313344,SSVP5_75,001,001,
3,0,3,0,None,6,0,6,0,None,1404598454.23800,8,2014_Jul_05_1513,59.8313344,SSVP5_75,001,001,
3,0,3,0,None,7,0,7,0,None,1404598454.36900,8,2014_Jul_05_1513,59.8313344,SSVP5_75,001,001,
3,0,3,0,None,8,0,8,0,None,1404598454.50100,8,2014_Jul_05_1513,59.8313344,SSVP5_75,001,001,
3,0,3,0,None,9,0,9,0,None,1404598454.63500,8,2014_Jul_05_1513,59.8313344,SSVP5_75,001,001,
3,0,3,0,None,10,0,10,0,None,1404598454.77000,8,2014_Jul_05_1513,59.8313344,SSVP5_75,001,001,
3,0,3,0,None,11,0,11,0,None,1404598454.90600,8,2014_Jul_05_1513,59.8313344,SSVP5_75,001,001,
3,0,3,0,None,12,0,12,0,None,1404598455.03700,8,2014_Jul_05_1513,59.8313344,SSVP5_75,001,001,
3,0,3,0,None,13,0,13,0,None,1404598455.17200,8,2014_Jul_05_1513,59.8313344,SSVP5_75,001,001,
3,0,3,0,None,14,0,14,0,None,1404598455.30700,8,2014_Jul_05_1513,59.8313344,SSVP5_75,001,001,
3,0,3,0,None,15,0,15,0,None,1404598455.43800,8,2014_Jul_05_1513,59.8313344,SSVP5_75,001,001,
3,0,3,0,None,16,0,16,0,None,1404598455.57400,8,2014_Jul_05_1513,59.8313344,SSVP5_75,001,001,
3,0,3,0,None,17,0,17,0,None,1404598455.70400,8,2014_Jul_05_1513,59.8313344,SSVP5_75,001,001,
3,0,3,0,None,18,0,18,0,None,1404598455.83700,8,2014_Jul_05_1513,59.8313344,SSVP5_75,001,001,
3,0,3,0,None,19,0,19,0,None,1404598455.97400,8,2014_Jul_05_1513,59.8313344,SSVP5_75,001,001,
3,0,3,0,None,20,0,20,0,None,1404598456.10600,8,2014_Jul_05_1513,59.8313344,SSVP5_75,001,001,
3,0,3,0,None,21,0,21,0,None,1404598456.24200,8,2014_Jul_05_1513,59.8313344,SSVP5_75,001,001,
3,0,3,0,None,22,0,22,0,None,1404598456.37200,8,2014_Jul_05_1513,59.8313344,SSVP5_75,001,001,
3,0,3,0,None,23,0,23,0,None,1404598456.50700,8,2014_Jul_05_1513,59.8313344,SSVP5_75,001,001,
3,0,3,0,None,24,0,24,0,None,1404598456.63900,8,2014_Jul_05_1513,59.8313344,SSVP5_75,001,001,
3,0,3,0,None,25,0,25,0,None,1404598456.77400,8,2014_Jul_05_1513,59.8313344,SSVP5_75,001,001,
3,0,3,0,None,26,0,26,0,None,1404598456.90600,8,2014_Jul_05_1513,59.8313344,SSVP5_75,001,001,
3,0,3,0,None,27,0,27,0,None,1404598457.03900,8,2014_Jul_05_1513,59.8313344,SSVP5_75,001,001,
3,0,3,0,None,28,0,28,0,None,1404598457.17400,8,2014_Jul_05_1513,59.8313344,SSVP5_75,001,001,
3,0,3,0,None,29,0,29,0,None,1404598457.30700,8,2014_Jul_05_1513,59.8313344,SSVP5_75,001,001,
3,0,3,0,None,,,,,,,,2014_Jul_05_1513,59.8313344,SSVP5_75,001,001,
4,0,4,0,None,0,0,0,0,None,1404598459.46100,8,2014_Jul_05_1513,59.8313344,SSVP5_75,001,001,
4,0,4,0,None,1,0,1,0,None,1404598459.59500,8,2014_Jul_05_1513,59.8313344,SSVP5_75,001,001,
4,0,4,0,None,2,0,2,0,None,1404598459.73200,8,2014_Jul_05_1513,59.8313344,SSVP5_75,001,001,
4,0,4,0,None,3,0,3,0,None,1404598459.86100,8,2014_Jul_05_1513,59.8313344,SSVP5_75,001,001,
4,0,4,0,None,4,0,4,0,None,1404598459.99600,8,2014_Jul_05_1513,59.8313344,SSVP5_75,001,001,
4,0,4,0,None,5,0,5,0,None,1404598460.13300,8,2014_Jul_05_1513,59.8313344,SSVP5_75,001,001,
4,0,4,0,None,6,0,6,0,None,1404598460.35300,8,2014_Jul_05_1513,59.8313344,SSVP5_75,001,001,
4,0,4,0,None,7,0,7,0,None,1404598460.48000,8,2014_Jul_05_1513,59.8313344,SSVP5_75,001,001,
4,0,4,0,None,8,0,8,0,None,1404598460.61400,8,2014_Jul_05_1513,59.8313344,SSVP5_75,001,001,
4,0,4,0,None,9,0,9,0,None,1404598460.75000,8,2014_Jul_05_1513,59.8313344,SSVP5_75,001,001,
4,0,4,0,None,10,0,10,0,None,1404598460.88100,8,2014_Jul_05_1513,59.8313344,SSVP5_75,001,001,
4,0,4,0,None,11,0,11,0,None,1404598461.01700,8,2014_Jul_05_1513,59.8313344,SSVP5_75,001,001,
4,0,4,0,None,12,0,12,0,None,1404598461.14700,8,2014_Jul_05_1513,59.8313344,SSVP5_75,001,001,
4,0,4,0,None,13,0,13,0,None,1404598461.28200,8,2014_Jul_05_1513,59.8313344,SSVP5_75,001,001,
4,0,4,0,None,14,0,14,0,None,1404598461.41400,8,2014_Jul_05_1513,59.8313344,SSVP5_75,001,001,
4,0,4,0,None,15,0,15,0,None,1404598461.54800,8,2014_Jul_05_1513,59.8313344,SSVP5_75,001,001,
4,0,4,0,None,16,0,16,0,None,1404598461.68300,8,2014_Jul_05_1513,59.8313344,SSVP5_75,001,001,
4,0,4,0,None,17,0,17,0,None,1404598461.81500,8,2014_Jul_05_1513,59.8313344,SSVP5_75,001,001,
4,0,4,0,None,18,0,18,0,None,1404598461.95000,8,2014_Jul_05_1513,59.8313344,SSVP5_75,001,001,
4,0,4,0,None,19,0,19,0,None,1404598462.08200,8,2014_Jul_05_1513,59.8313344,SSVP5_75,001,001,
4,0,4,0,None,20,0,20,0,None,1404598462.21600,8,2014_Jul_05_1513,59.8313344,SSVP5_75,001,001,
4,0,4,0,None,21,0,21,0,None,1404598462.35100,8,2014_Jul_05_1513,59.8313344,SSVP5_75,001,001,
4,0,4,0,None,22,0,22,0,None,1404598462.48700,8,2014_Jul_05_1513,59.8313344,SSVP5_75,001,001,
4,0,4,0,None,23,0,23,0,None,1404598462.61700,8,2014_Jul_05_1513,59.8313344,SSVP5_75,001,001,
4,0,4,0,None,24,0,24,0,None,1404598462.75000,8,2014_Jul_05_1513,59.8313344,SSVP5_75,001,001,
4,0,4,0,None,25,0,25,0,None,1404598462.88400,8,2014_Jul_05_1513,59.8313344,SSVP5_75,001,001,
4,0,4,0,None,26,0,26,0,None,1404598463.01800,8,2014_Jul_05_1513,59.8313344,SSVP5_75,001,001,
4,0,4,0,None,27,0,27,0,None,1404598463.15100,8,2014_Jul_05_1513,59.8313344,SSVP5_75,001,001,
4,0,4,0,None,28,0,28,0,None,1404598463.28500,8,2014_Jul_05_1513,59.8313344,SSVP5_75,001,001,
4,0,4,0,None,29,0,29,0,None,1404598463.41800,8,2014_Jul_05_1513,59.8313344,SSVP5_75,001,001,
4,0,4,0,None,,,,,,,,2014_Jul_05_1513,59.8313344,SSVP5_75,001,001,
5,0,5,0,None,0,0,0,0,None,1404598465.55700,8,2014_Jul_05_1513,59.8313344,SSVP5_75,001,001,
5,0,5,0,None,1,0,1,0,None,1404598465.69000,8,2014_Jul_05_1513,59.8313344,SSVP5_75,001,001,
5,0,5,0,None,2,0,2,0,None,1404598465.82500,8,2014_Jul_05_1513,59.8313344,SSVP5_75,001,001,
5,0,5,0,None,3,0,3,0,None,1404598465.96100,8,2014_Jul_05_1513,59.8313344,SSVP5_75,001,001,
5,0,5,0,None,4,0,4,0,None,1404598466.09200,8,2014_Jul_05_1513,59.8313344,SSVP5_75,001,001,
5,0,5,0,None,5,0,5,0,None,1404598466.22900,8,2014_Jul_05_1513,59.8313344,SSVP5_75,001,001,
5,0,5,0,None,6,0,6,0,None,1404598466.35800,8,2014_Jul_05_1513,59.8313344,SSVP5_75,001,001,
5,0,5,0,None,7,0,7,0,None,1404598466.49200,8,2014_Jul_05_1513,59.8313344,SSVP5_75,001,001,
5,0,5,0,None,8,0,8,0,None,1404598466.62500,8,2014_Jul_05_1513,59.8313344,SSVP5_75,001,001,
5,0,5,0,None,9,0,9,0,None,1404598466.75900,8,2014_Jul_05_1513,59.8313344,SSVP5_75,001,001,
5,0,5,0,None,10,0,10,0,None,1404598466.89400,8,2014_Jul_05_1513,59.8313344,SSVP5_75,001,001,
5,0,5,0,None,11,0,11,0,None,1404598467.02600,8,2014_Jul_05_1513,59.8313344,SSVP5_75,001,001,
5,0,5,0,None,12,0,12,0,None,1404598467.16100,8,2014_Jul_05_1513,59.8313344,SSVP5_75,001,001,
5,0,5,0,None,13,0,13,0,None,1404598467.29300,8,2014_Jul_05_1513,59.8313344,SSVP5_75,001,001,
5,0,5,0,None,14,0,14,0,None,1404598467.42700,8,2014_Jul_05_1513,59.8313344,SSVP5_75,001,001,
5,0,5,0,None,15,0,15,0,None,1404598467.56200,8,2014_Jul_05_1513,59.8313344,SSVP5_75,001,001,
5,0,5,0,None,16,0,16,0,None,1404598467.69400,8,2014_Jul_05_1513,59.8313344,SSVP5_75,001,001,
5,0,5,0,None,17,0,17,0,None,1404598467.82800,8,2014_Jul_05_1513,59.8313344,SSVP5_75,001,001,
5,0,5,0,None,18,0,18,0,None,1404598467.96300,8,2014_Jul_05_1513,59.8313344,SSVP5_75,001,001,
5,0,5,0,None,19,0,19,0,None,1404598468.09500,8,2014_Jul_05_1513,59.8313344,SSVP5_75,001,001,
5,0,5,0,None,20,0,20,0,None,1404598468.22900,8,2014_Jul_05_1513,59.8313344,SSVP5_75,001,001,
5,0,5,0,None,21,0,21,0,None,1404598468.36600,8,2014_Jul_05_1513,59.8313344,SSVP5_75,001,001,
5,0,5,0,None,22,0,22,0,None,1404598468.49600,8,2014_Jul_05_1513,59.8313344,SSVP5_75,001,001,
5,0,5,0,None,23,0,23,0,None,1404598468.62900,8,2014_Jul_05_1513,59.8313344,SSVP5_75,001,001,
5,0,5,0,None,24,0,24,0,None,1404598468.76200,8,2014_Jul_05_1513,59.8313344,SSVP5_75,001,001,
5,0,5,0,None,25,0,25,0,None,1404598468.89600,8,2014_Jul_05_1513,59.8313344,SSVP5_75,001,001,
5,0,5,0,None,26,0,26,0,None,1404598469.03200,8,2014_Jul_05_1513,59.8313344,SSVP5_75,001,001,
5,0,5,0,None,27,0,27,0,None,1404598469.16700,8,2014_Jul_05_1513,59.8313344,SSVP5_75,001,001,
5,0,5,0,None,28,0,28,0,None,1404598469.29800,8,2014_Jul_05_1513,59.8313344,SSVP5_75,001,001,
5,0,5,0,None,29,0,29,0,None,1404598469.43100,8,2014_Jul_05_1513,59.8313344,SSVP5_75,001,001,
5,0,5,0,None,,,,,,,,2014_Jul_05_1513,59.8313344,SSVP5_75,001,001,
6,0,6,0,None,0,0,0,0,None,1404598471.62200,8,2014_Jul_05_1513,59.8313344,SSVP5_75,001,001,
6,0,6,0,None,1,0,1,0,None,1404598471.75200,8,2014_Jul_05_1513,59.8313344,SSVP5_75,001,001,
6,0,6,0,None,2,0,2,0,None,1404598471.88700,8,2014_Jul_05_1513,59.8313344,SSVP5_75,001,001,
6,0,6,0,None,3,0,3,0,None,1404598472.01900,8,2014_Jul_05_1513,59.8313344,SSVP5_75,001,001,
6,0,6,0,None,4,0,4,0,None,1404598472.15300,8,2014_Jul_05_1513,59.8313344,SSVP5_75,001,001,
6,0,6,0,None,5,0,5,0,None,1404598472.28800,8,2014_Jul_05_1513,59.8313344,SSVP5_75,001,001,
6,0,6,0,None,6,0,6,0,None,1404598472.42000,8,2014_Jul_05_1513,59.8313344,SSVP5_75,001,001,
6,0,6,0,None,7,0,7,0,None,1404598472.55400,8,2014_Jul_05_1513,59.8313344,SSVP5_75,001,001,
6,0,6,0,None,8,0,8,0,None,1404598472.69100,8,2014_Jul_05_1513,59.8313344,SSVP5_75,001,001,
6,0,6,0,None,9,0,9,0,None,1404598472.82000,8,2014_Jul_05_1513,59.8313344,SSVP5_75,001,001,
6,0,6,0,None,10,0,10,0,None,1404598472.95600,8,2014_Jul_05_1513,59.8313344,SSVP5_75,001,001,
6,0,6,0,None,11,0,11,0,None,1404598473.09100,8,2014_Jul_05_1513,59.8313344,SSVP5_75,001,001,
6,0,6,0,None,12,0,12,0,None,1404598473.22200,8,2014_Jul_05_1513,59.8313344,SSVP5_75,001,001,
6,0,6,0,None,13,0,13,0,None,1404598473.35700,8,2014_Jul_05_1513,59.8313344,SSVP5_75,001,001,
6,0,6,0,None,14,0,14,0,None,1404598473.49000,8,2014_Jul_05_1513,59.8313344,SSVP5_75,001,001,
6,0,6,0,None,15,0,15,0,None,1404598473.62400,8,2014_Jul_05_1513,59.8313344,SSVP5_75,001,001,
6,0,6,0,None,16,0,16,0,None,1404598473.75500,8,2014_Jul_05_1513,59.8313344,SSVP5_75,001,001,
6,0,6,0,None,17,0,17,0,None,1404598473.88900,8,2014_Jul_05_1513,59.8313344,SSVP5_75,001,001,
6,0,6,0,None,18,0,18,0,None,1404598474.02400,8,2014_Jul_05_1513,59.8313344,SSVP5_75,001,001,
6,0,6,0,None,19,0,19,0,None,1404598474.16000,8,2014_Jul_05_1513,59.8313344,SSVP5_75,001,001,
6,0,6,0,None,20,0,20,0,None,1404598474.29100,8,2014_Jul_05_1513,59.8313344,SSVP5_75,001,001,
6,0,6,0,None,21,0,21,0,None,1404598474.42300,8,2014_Jul_05_1513,59.8313344,SSVP5_75,001,001,
6,0,6,0,None,22,0,22,0,None,1404598474.56100,8,2014_Jul_05_1513,59.8313344,SSVP5_75,001,001,
6,0,6,0,None,23,0,23,0,None,1404598474.69200,8,2014_Jul_05_1513,59.8313344,SSVP5_75,001,001,
6,0,6,0,None,24,0,24,0,None,1404598474.82400,8,2014_Jul_05_1513,59.8313344,SSVP5_75,001,001,
6,0,6,0,None,25,0,25,0,None,1404598474.95800,8,2014_Jul_05_1513,59.8313344,SSVP5_75,001,001,
6,0,6,0,None,26,0,26,0,None,1404598475.09100,8,2014_Jul_05_1513,59.8313344,SSVP5_75,001,001,
6,0,6,0,None,27,0,27,0,None,1404598475.22900,8,2014_Jul_05_1513,59.8313344,SSVP5_75,001,001,
6,0,6,0,None,28,0,28,0,None,1404598475.35900,8,2014_Jul_05_1513,59.8313344,SSVP5_75,001,001,
6,0,6,0,None,29,0,29,0,None,1404598475.49400,8,2014_Jul_05_1513,59.8313344,SSVP5_75,001,001,
6,0,6,0,None,,,,,,,,2014_Jul_05_1513,59.8313344,SSVP5_75,001,001,
7,0,7,0,None,0,0,0,0,None,1404598477.64600,8,2014_Jul_05_1513,59.8313344,SSVP5_75,001,001,
7,0,7,0,None,1,0,1,0,None,1404598477.78000,8,2014_Jul_05_1513,59.8313344,SSVP5_75,001,001,
7,0,7,0,None,2,0,2,0,None,1404598477.91500,8,2014_Jul_05_1513,59.8313344,SSVP5_75,001,001,
7,0,7,0,None,3,0,3,0,None,1404598478.05100,8,2014_Jul_05_1513,59.8313344,SSVP5_75,001,001,
7,0,7,0,None,4,0,4,0,None,1404598478.18100,8,2014_Jul_05_1513,59.8313344,SSVP5_75,001,001,
7,0,7,0,None,5,0,5,0,None,1404598478.31400,8,2014_Jul_05_1513,59.8313344,SSVP5_75,001,001,
7,0,7,0,None,6,0,6,0,None,1404598478.45200,8,2014_Jul_05_1513,59.8313344,SSVP5_75,001,001,
7,0,7,0,None,7,0,7,0,None,1404598478.58100,8,2014_Jul_05_1513,59.8313344,SSVP5_75,001,001,
7,0,7,0,None,8,0,8,0,None,1404598478.71900,8,2014_Jul_05_1513,59.8313344,SSVP5_75,001,001,
7,0,7,0,None,9,0,9,0,None,1404598478.84900,8,2014_Jul_05_1513,59.8313344,SSVP5_75,001,001,
7,0,7,0,None,10,0,10,0,None,1404598478.98200,8,2014_Jul_05_1513,59.8313344,SSVP5_75,001,001,
7,0,7,0,None,11,0,11,0,None,1404598479.11900,8,2014_Jul_05_1513,59.8313344,SSVP5_75,001,001,
7,0,7,0,None,12,0,12,0,None,1404598479.25000,8,2014_Jul_05_1513,59.8313344,SSVP5_75,001,001,
7,0,7,0,None,13,0,13,0,None,1404598479.38700,8,2014_Jul_05_1513,59.8313344,SSVP5_75,001,001,
7,0,7,0,None,14,0,14,0,None,1404598479.51600,8,2014_Jul_05_1513,59.8313344,SSVP5_75,001,001,
7,0,7,0,None,15,0,15,0,None,1404598479.65400,8,2014_Jul_05_1513,59.8313344,SSVP5_75,001,001,
7,0,7,0,None,16,0,16,0,None,1404598479.78300,8,2014_Jul_05_1513,59.8313344,SSVP5_75,001,001,
7,0,7,0,None,17,0,17,0,None,1404598479.91800,8,2014_Jul_05_1513,59.8313344,SSVP5_75,001,001,
7,0,7,0,None,18,0,18,0,None,1404598480.05100,8,2014_Jul_05_1513,59.8313344,SSVP5_75,001,001,
7,0,7,0,None,19,0,19,0,None,1404598480.18400,8,2014_Jul_05_1513,59.8313344,SSVP5_75,001,001,
7,0,7,0,None,20,0,20,0,None,1404598480.31900,8,2014_Jul_05_1513,59.8313344,SSVP5_75,001,001,
7,0,7,0,None,21,0,21,0,None,1404598480.55500,8,2014_Jul_05_1513,59.8313344,SSVP5_75,001,001,
7,0,7,0,None,22,0,22,0,None,1404598480.68500,8,2014_Jul_05_1513,59.8313344,SSVP5_75,001,001,
7,0,7,0,None,23,0,23,0,None,1404598480.81900,8,2014_Jul_05_1513,59.8313344,SSVP5_75,001,001,
7,0,7,0,None,24,0,24,0,None,1404598480.95400,8,2014_Jul_05_1513,59.8313344,SSVP5_75,001,001,
7,0,7,0,None,25,0,25,0,None,1404598481.08700,8,2014_Jul_05_1513,59.8313344,SSVP5_75,001,001,
7,0,7,0,None,26,0,26,0,None,1404598481.22000,8,2014_Jul_05_1513,59.8313344,SSVP5_75,001,001,
7,0,7,0,None,27,0,27,0,None,1404598481.35600,8,2014_Jul_05_1513,59.8313344,SSVP5_75,001,001,
7,0,7,0,None,28,0,28,0,None,1404598481.48800,8,2014_Jul_05_1513,59.8313344,SSVP5_75,001,001,
7,0,7,0,None,29,0,29,0,None,1404598481.62300,8,2014_Jul_05_1513,59.8313344,SSVP5_75,001,001,
7,0,7,0,None,,,,,,,,2014_Jul_05_1513,59.8313344,SSVP5_75,001,001,
8,0,8,0,None,0,0,0,0,None,1404598483.79300,8,2014_Jul_05_1513,59.8313344,SSVP5_75,001,001,
8,0,8,0,None,1,0,1,0,None,1404598483.93000,8,2014_Jul_05_1513,59.8313344,SSVP5_75,001,001,
8,0,8,0,None,2,0,2,0,None,1404598484.05900,8,2014_Jul_05_1513,59.8313344,SSVP5_75,001,001,
8,0,8,0,None,3,0,3,0,None,1404598484.19300,8,2014_Jul_05_1513,59.8313344,SSVP5_75,001,001,
8,0,8,0,None,4,0,4,0,None,1404598484.33000,8,2014_Jul_05_1513,59.8313344,SSVP5_75,001,001,
8,0,8,0,None,5,0,5,0,None,1404598484.46100,8,2014_Jul_05_1513,59.8313344,SSVP5_75,001,001,
8,0,8,0,None,6,0,6,0,None,1404598484.59300,8,2014_Jul_05_1513,59.8313344,SSVP5_75,001,001,
8,0,8,0,None,7,0,7,0,None,1404598484.73100,8,2014_Jul_05_1513,59.8313344,SSVP5_75,001,001,
8,0,8,0,None,8,0,8,0,None,1404598484.86200,8,2014_Jul_05_1513,59.8313344,SSVP5_75,001,001,
8,0,8,0,None,9,0,9,0,None,1404598484.99800,8,2014_Jul_05_1513,59.8313344,SSVP5_75,001,001,
8,0,8,0,None,10,0,10,0,None,1404598485.12900,8,2014_Jul_05_1513,59.8313344,SSVP5_75,001,001,
8,0,8,0,None,11,0,11,0,None,1404598485.26100,8,2014_Jul_05_1513,59.8313344,SSVP5_75,001,001,
8,0,8,0,None,12,0,12,0,None,1404598485.39500,8,2014_Jul_05_1513,59.8313344,SSVP5_75,001,001,
8,0,8,0,None,13,0,13,0,None,1404598485.53000,8,2014_Jul_05_1513,59.8313344,SSVP5_75,001,001,
8,0,8,0,None,14,0,14,0,None,1404598485.66200,8,2014_Jul_05_1513,59.8313344,SSVP5_75,001,001,
8,0,8,0,None,15,0,15,0,None,1404598485.79600,8,2014_Jul_05_1513,59.8313344,SSVP5_75,001,001,
8,0,8,0,None,16,0,16,0,None,1404598485.93100,8,2014_Jul_05_1513,59.8313344,SSVP5_75,001,001,
8,0,8,0,None,17,0,17,0,None,1404598486.06300,8,2014_Jul_05_1513,59.8313344,SSVP5_75,001,001,
8,0,8,0,None,18,0,18,0,None,1404598486.19800,8,2014_Jul_05_1513,59.8313344,SSVP5_75,001,001,
8,0,8,0,None,19,0,19,0,None,1404598486.33000,8,2014_Jul_05_1513,59.8313344,SSVP5_75,001,001,
8,0,8,0,None,20,0,20,0,None,1404598486.46400,8,2014_Jul_05_1513,59.8313344,SSVP5_75,001,001,
8,0,8,0,None,21,0,21,0,None,1404598486.59900,8,2014_Jul_05_1513,59.8313344,SSVP5_75,001,001,
8,0,8,0,None,22,0,22,0,None,1404598486.73100,8,2014_Jul_05_1513,59.8313344,SSVP5_75,001,001,
8,0,8,0,None,23,0,23,0,None,1404598486.86400,8,2014_Jul_05_1513,59.8313344,SSVP5_75,001,001,
8,0,8,0,None,24,0,24,0,None,1404598487.00000,8,2014_Jul_05_1513,59.8313344,SSVP5_75,001,001,
8,0,8,0,None,25,0,25,0,None,1404598487.13200,8,2014_Jul_05_1513,59.8313344,SSVP5_75,001,001,
8,0,8,0,None,26,0,26,0,None,1404598487.26700,8,2014_Jul_05_1513,59.8313344,SSVP5_75,001,001,
8,0,8,0,None,27,0,27,0,None,1404598487.40200,8,2014_Jul_05_1513,59.8313344,SSVP5_75,001,001,
8,0,8,0,None,28,0,28,0,None,1404598487.53200,8,2014_Jul_05_1513,59.8313344,SSVP5_75,001,001,
8,0,8,0,None,29,0,29,0,None,1404598487.66700,8,2014_Jul_05_1513,59.8313344,SSVP5_75,001,001,
8,0,8,0,None,,,,,,,,2014_Jul_05_1513,59.8313344,SSVP5_75,001,001,
9,0,9,0,None,0,0,0,0,None,1404598489.80700,8,2014_Jul_05_1513,59.8313344,SSVP5_75,001,001,
9,0,9,0,None,1,0,1,0,None,1404598489.94100,8,2014_Jul_05_1513,59.8313344,SSVP5_75,001,001,
9,0,9,0,None,2,0,2,0,None,1404598490.07200,8,2014_Jul_05_1513,59.8313344,SSVP5_75,001,001,
9,0,9,0,None,3,0,3,0,None,1404598490.20400,8,2014_Jul_05_1513,59.8313344,SSVP5_75,001,001,
9,0,9,0,None,4,0,4,0,None,1404598490.33900,8,2014_Jul_05_1513,59.8313344,SSVP5_75,001,001,
9,0,9,0,None,5,0,5,0,None,1404598490.47500,8,2014_Jul_05_1513,59.8313344,SSVP5_75,001,001,
9,0,9,0,None,6,0,6,0,None,1404598490.60900,8,2014_Jul_05_1513,59.8313344,SSVP5_75,001,001,
9,0,9,0,None,7,0,7,0,None,1404598490.73900,8,2014_Jul_05_1513,59.8313344,SSVP5_75,001,001,
9,0,9,0,None,8,0,8,0,None,1404598490.87600,8,2014_Jul_05_1513,59.8313344,SSVP5_75,001,001,
9,0,9,0,None,9,0,9,0,None,1404598491.00600,8,2014_Jul_05_1513,59.8313344,SSVP5_75,001,001,
9,0,9,0,None,10,0,10,0,None,1404598491.14100,8,2014_Jul_05_1513,59.8313344,SSVP5_75,001,001,
9,0,9,0,None,11,0,11,0,None,1404598491.27300,8,2014_Jul_05_1513,59.8313344,SSVP5_75,001,001,
9,0,9,0,None,12,0,12,0,None,1404598491.40700,8,2014_Jul_05_1513,59.8313344,SSVP5_75,001,001,
9,0,9,0,None,13,0,13,0,None,1404598491.54000,8,2014_Jul_05_1513,59.8313344,SSVP5_75,001,001,
9,0,9,0,None,14,0,14,0,None,1404598491.67400,8,2014_Jul_05_1513,59.8313344,SSVP5_75,001,001,
9,0,9,0,None,15,0,15,0,None,1404598491.80800,8,2014_Jul_05_1513,59.8313344,SSVP5_75,001,001,
9,0,9,0,None,16,0,16,0,None,1404598491.94100,8,2014_Jul_05_1513,59.8313344,SSVP5_75,001,001,
9,0,9,0,None,17,0,17,0,None,1404598492.07400,8,2014_Jul_05_1513,59.8313344,SSVP5_75,001,001,
9,0,9,0,None,18,0,18,0,None,1404598492.21000,8,2014_Jul_05_1513,59.8313344,SSVP5_75,001,001,
9,0,9,0,None,19,0,19,0,None,1404598492.34200,8,2014_Jul_05_1513,59.8313344,SSVP5_75,001,001,
9,0,9,0,None,20,0,20,0,None,1404598492.48500,8,2014_Jul_05_1513,59.8313344,SSVP5_75,001,001,
9,0,9,0,None,21,0,21,0,None,1404598492.61200,8,2014_Jul_05_1513,59.8313344,SSVP5_75,001,001,
9,0,9,0,None,22,0,22,0,None,1404598492.74300,8,2014_Jul_05_1513,59.8313344,SSVP5_75,001,001,
9,0,9,0,None,23,0,23,0,None,1404598492.87700,8,2014_Jul_05_1513,59.8313344,SSVP5_75,001,001,
9,0,9,0,None,24,0,24,0,None,1404598493.00900,8,2014_Jul_05_1513,59.8313344,SSVP5_75,001,001,
9,0,9,0,None,25,0,25,0,None,1404598493.14300,8,2014_Jul_05_1513,59.8313344,SSVP5_75,001,001,
9,0,9,0,None,26,0,26,0,None,1404598493.27800,8,2014_Jul_05_1513,59.8313344,SSVP5_75,001,001,
9,0,9,0,None,27,0,27,0,None,1404598493.41000,8,2014_Jul_05_1513,59.8313344,SSVP5_75,001,001,
9,0,9,0,None,28,0,28,0,None,1404598493.54400,8,2014_Jul_05_1513,59.8313344,SSVP5_75,001,001,
9,0,9,0,None,29,0,29,0,None,1404598493.67700,8,2014_Jul_05_1513,59.8313344,SSVP5_75,001,001,
9,0,9,0,None,,,,,,,,2014_Jul_05_1513,59.8313344,SSVP5_75,001,001,
10,0,10,0,None,0,0,0,0,None,1404598495.83200,8,2014_Jul_05_1513,59.8313344,SSVP5_75,001,001,
10,0,10,0,None,1,0,1,0,None,1404598495.96500,8,2014_Jul_05_1513,59.8313344,SSVP5_75,001,001,
10,0,10,0,None,2,0,2,0,None,1404598496.09900,8,2014_Jul_05_1513,59.8313344,SSVP5_75,001,001,
10,0,10,0,None,3,0,3,0,None,1404598496.23600,8,2014_Jul_05_1513,59.8313344,SSVP5_75,001,001,
10,0,10,0,None,4,0,4,0,None,1404598496.36700,8,2014_Jul_05_1513,59.8313344,SSVP5_75,001,001,
10,0,10,0,None,5,0,5,0,None,1404598496.50300,8,2014_Jul_05_1513,59.8313344,SSVP5_75,001,001,
10,0,10,0,None,6,0,6,0,None,1404598496.63300,8,2014_Jul_05_1513,59.8313344,SSVP5_75,001,001,
10,0,10,0,None,7,0,7,0,None,1404598496.76800,8,2014_Jul_05_1513,59.8313344,SSVP5_75,001,001,
10,0,10,0,None,8,0,8,0,None,1404598496.90100,8,2014_Jul_05_1513,59.8313344,SSVP5_75,001,001,
10,0,10,0,None,9,0,9,0,None,1404598497.03400,8,2014_Jul_05_1513,59.8313344,SSVP5_75,001,001,
10,0,10,0,None,10,0,10,0,None,1404598497.16900,8,2014_Jul_05_1513,59.8313344,SSVP5_75,001,001,
10,0,10,0,None,11,0,11,0,None,1404598497.30100,8,2014_Jul_05_1513,59.8313344,SSVP5_75,001,001,
10,0,10,0,None,12,0,12,0,None,1404598497.43500,8,2014_Jul_05_1513,59.8313344,SSVP5_75,001,001,
10,0,10,0,None,13,0,13,0,None,1404598497.58900,8,2014_Jul_05_1513,59.8313344,SSVP5_75,001,001,
10,0,10,0,None,14,0,14,0,None,1404598497.72200,8,2014_Jul_05_1513,59.8313344,SSVP5_75,001,001,
10,0,10,0,None,15,0,15,0,None,1404598497.85300,8,2014_Jul_05_1513,59.8313344,SSVP5_75,001,001,
10,0,10,0,None,16,0,16,0,None,1404598497.98600,8,2014_Jul_05_1513,59.8313344,SSVP5_75,001,001,
10,0,10,0,None,17,0,17,0,None,1404598498.11900,8,2014_Jul_05_1513,59.8313344,SSVP5_75,001,001,
10,0,10,0,None,18,0,18,0,None,1404598498.25300,8,2014_Jul_05_1513,59.8313344,SSVP5_75,001,001,
10,0,10,0,None,19,0,19,0,None,1404598498.38600,8,2014_Jul_05_1513,59.8313344,SSVP5_75,001,001,
10,0,10,0,None,20,0,20,0,None,1404598498.52200,8,2014_Jul_05_1513,59.8313344,SSVP5_75,001,001,
10,0,10,0,None,21,0,21,0,None,1404598498.65400,8,2014_Jul_05_1513,59.8313344,SSVP5_75,001,001,
10,0,10,0,None,22,0,22,0,None,1404598498.78800,8,2014_Jul_05_1513,59.8313344,SSVP5_75,001,001,
10,0,10,0,None,23,0,23,0,None,1404598498.92300,8,2014_Jul_05_1513,59.8313344,SSVP5_75,001,001,
10,0,10,0,None,24,0,24,0,None,1404598499.05500,8,2014_Jul_05_1513,59.8313344,SSVP5_75,001,001,
10,0,10,0,None,25,0,25,0,None,1404598499.18900,8,2014_Jul_05_1513,59.8313344,SSVP5_75,001,001,
10,0,10,0,None,26,0,26,0,None,1404598499.32200,8,2014_Jul_05_1513,59.8313344,SSVP5_75,001,001,
10,0,10,0,None,27,0,27,0,None,1404598499.45600,8,2014_Jul_05_1513,59.8313344,SSVP5_75,001,001,
10,0,10,0,None,28,0,28,0,None,1404598499.60600,8,2014_Jul_05_1513,59.8313344,SSVP5_75,001,001,
10,0,10,0,None,29,0,29,0,None,1404598499.74000,8,2014_Jul_05_1513,59.8313344,SSVP5_75,001,001,
10,0,10,0,None,,,,,,,,2014_Jul_05_1513,59.8313344,SSVP5_75,001,001,
11,0,11,0,None,0,0,0,0,None,1404598501.91100,8,2014_Jul_05_1513,59.8313344,SSVP5_75,001,001,
11,0,11,0,None,1,0,1,0,None,1404598502.04800,8,2014_Jul_05_1513,59.8313344,SSVP5_75,001,001,
11,0,11,0,None,2,0,2,0,None,1404598502.17900,8,2014_Jul_05_1513,59.8313344,SSVP5_75,001,001,
11,0,11,0,None,3,0,3,0,None,1404598502.31100,8,2014_Jul_05_1513,59.8313344,SSVP5_75,001,001,
11,0,11,0,None,4,0,4,0,None,1404598502.44600,8,2014_Jul_05_1513,59.8313344,SSVP5_75,001,001,
11,0,11,0,None,5,0,5,0,None,1404598502.57900,8,2014_Jul_05_1513,59.8313344,SSVP5_75,001,001,
11,0,11,0,None,6,0,6,0,None,1404598502.71600,8,2014_Jul_05_1513,59.8313344,SSVP5_75,001,001,
11,0,11,0,None,7,0,7,0,None,1404598502.84700,8,2014_Jul_05_1513,59.8313344,SSVP5_75,001,001,
11,0,11,0,None,8,0,8,0,None,1404598502.97900,8,2014_Jul_05_1513,59.8313344,SSVP5_75,001,001,
11,0,11,0,None,9,0,9,0,None,1404598503.11300,8,2014_Jul_05_1513,59.8313344,SSVP5_75,001,001,
11,0,11,0,None,10,0,10,0,None,1404598503.24800,8,2014_Jul_05_1513,59.8313344,SSVP5_75,001,001,
11,0,11,0,None,11,0,11,0,None,1404598503.38000,8,2014_Jul_05_1513,59.8313344,SSVP5_75,001,001,
11,0,11,0,None,12,0,12,0,None,1404598503.51400,8,2014_Jul_05_1513,59.8313344,SSVP5_75,001,001,
11,0,11,0,None,13,0,13,0,None,1404598503.69900,8,2014_Jul_05_1513,59.8313344,SSVP5_75,001,001,
11,0,11,0,None,14,0,14,0,None,1404598503.83100,8,2014_Jul_05_1513,59.8313344,SSVP5_75,001,001,
11,0,11,0,None,15,0,15,0,None,1404598503.96500,8,2014_Jul_05_1513,59.8313344,SSVP5_75,001,001,
11,0,11,0,None,16,0,16,0,None,1404598504.10000,8,2014_Jul_05_1513,59.8313344,SSVP5_75,001,001,
11,0,11,0,None,17,0,17,0,None,1404598504.23200,8,2014_Jul_05_1513,59.8313344,SSVP5_75,001,001,
11,0,11,0,None,18,0,18,0,None,1404598504.36700,8,2014_Jul_05_1513,59.8313344,SSVP5_75,001,001,
11,0,11,0,None,19,0,19,0,None,1404598504.49900,8,2014_Jul_05_1513,59.8313344,SSVP5_75,001,001,
11,0,11,0,None,20,0,20,0,None,1404598504.63300,8,2014_Jul_05_1513,59.8313344,SSVP5_75,001,001,
11,0,11,0,None,21,0,21,0,None,1404598504.76800,8,2014_Jul_05_1513,59.8313344,SSVP5_75,001,001,
11,0,11,0,None,22,0,22,0,None,1404598504.90400,8,2014_Jul_05_1513,59.8313344,SSVP5_75,001,001,
11,0,11,0,None,23,0,23,0,None,1404598505.03400,8,2014_Jul_05_1513,59.8313344,SSVP5_75,001,001,
11,0,11,0,None,24,0,24,0,None,1404598505.16900,8,2014_Jul_05_1513,59.8313344,SSVP5_75,001,001,
11,0,11,0,None,25,0,25,0,None,1404598505.30400,8,2014_Jul_05_1513,59.8313344,SSVP5_75,001,001,
11,0,11,0,None,26,0,26,0,None,1404598505.43600,8,2014_Jul_05_1513,59.8313344,SSVP5_75,001,001,
11,0,11,0,None,27,0,27,0,None,1404598505.58800,8,2014_Jul_05_1513,59.8313344,SSVP5_75,001,001,
11,0,11,0,None,28,0,28,0,None,1404598505.71800,8,2014_Jul_05_1513,59.8313344,SSVP5_75,001,001,
11,0,11,0,None,29,0,29,0,None,1404598505.85300,8,2014_Jul_05_1513,59.8313344,SSVP5_75,001,001,
11,0,11,0,None,,,,,,,,2014_Jul_05_1513,59.8313344,SSVP5_75,001,001,
12,0,12,0,None,0,0,0,0,None,1404598508.00500,8,2014_Jul_05_1513,59.8313344,SSVP5_75,001,001,
12,0,12,0,None,1,0,1,0,None,1404598508.14300,8,2014_Jul_05_1513,59.8313344,SSVP5_75,001,001,
12,0,12,0,None,2,0,2,0,None,1404598508.27400,8,2014_Jul_05_1513,59.8313344,SSVP5_75,001,001,
12,0,12,0,None,3,0,3,0,None,1404598508.40900,8,2014_Jul_05_1513,59.8313344,SSVP5_75,001,001,
12,0,12,0,None,4,0,4,0,None,1404598508.54400,8,2014_Jul_05_1513,59.8313344,SSVP5_75,001,001,
12,0,12,0,None,5,0,5,0,None,1404598508.67500,8,2014_Jul_05_1513,59.8313344,SSVP5_75,001,001,
12,0,12,0,None,6,0,6,0,None,1404598508.81100,8,2014_Jul_05_1513,59.8313344,SSVP5_75,001,001,
12,0,12,0,None,7,0,7,0,None,1404598508.94100,8,2014_Jul_05_1513,59.8313344,SSVP5_75,001,001,
12,0,12,0,None,8,0,8,0,None,1404598509.07400,8,2014_Jul_05_1513,59.8313344,SSVP5_75,001,001,
12,0,12,0,None,9,0,9,0,None,1404598509.21200,8,2014_Jul_05_1513,59.8313344,SSVP5_75,001,001,
12,0,12,0,None,10,0,10,0,None,1404598509.34300,8,2014_Jul_05_1513,59.8313344,SSVP5_75,001,001,
12,0,12,0,None,11,0,11,0,None,1404598509.48100,8,2014_Jul_05_1513,59.8313344,SSVP5_75,001,001,
12,0,12,0,None,12,0,12,0,None,1404598509.63000,8,2014_Jul_05_1513,59.8313344,SSVP5_75,001,001,
12,0,12,0,None,13,0,13,0,None,1404598509.76100,8,2014_Jul_05_1513,59.8313344,SSVP5_75,001,001,
12,0,12,0,None,14,0,14,0,None,1404598509.89300,8,2014_Jul_05_1513,59.8313344,SSVP5_75,001,001,
12,0,12,0,None,15,0,15,0,None,1404598510.02700,8,2014_Jul_05_1513,59.8313344,SSVP5_75,001,001,
12,0,12,0,None,16,0,16,0,None,1404598510.16100,8,2014_Jul_05_1513,59.8313344,SSVP5_75,001,001,
12,0,12,0,None,17,0,17,0,None,1404598510.29300,8,2014_Jul_05_1513,59.8313344,SSVP5_75,001,001,
12,0,12,0,None,18,0,18,0,None,1404598510.42700,8,2014_Jul_05_1513,59.8313344,SSVP5_75,001,001,
12,0,12,0,None,19,0,19,0,None,1404598510.56000,8,2014_Jul_05_1513,59.8313344,SSVP5_75,001,001,
12,0,12,0,None,20,0,20,0,None,1404598510.69500,8,2014_Jul_05_1513,59.8313344,SSVP5_75,001,001,
12,0,12,0,None,21,0,21,0,None,1404598510.83000,8,2014_Jul_05_1513,59.8313344,SSVP5_75,001,001,
12,0,12,0,None,22,0,22,0,None,1404598510.96100,8,2014_Jul_05_1513,59.8313344,SSVP5_75,001,001,
12,0,12,0,None,23,0,23,0,None,1404598511.09500,8,2014_Jul_05_1513,59.8313344,SSVP5_75,001,001,
12,0,12,0,None,24,0,24,0,None,1404598511.22800,8,2014_Jul_05_1513,59.8313344,SSVP5_75,001,001,
12,0,12,0,None,25,0,25,0,None,1404598511.36600,8,2014_Jul_05_1513,59.8313344,SSVP5_75,001,001,
12,0,12,0,None,26,0,26,0,None,1404598511.49900,8,2014_Jul_05_1513,59.8313344,SSVP5_75,001,001,
12,0,12,0,None,27,0,27,0,None,1404598511.62900,8,2014_Jul_05_1513,59.8313344,SSVP5_75,001,001,
12,0,12,0,None,28,0,28,0,None,1404598511.76300,8,2014_Jul_05_1513,59.8313344,SSVP5_75,001,001,
12,0,12,0,None,29,0,29,0,None,1404598511.89600,8,2014_Jul_05_1513,59.8313344,SSVP5_75,001,001,
12,0,12,0,None,,,,,,,,2014_Jul_05_1513,59.8313344,SSVP5_75,001,001,
13,0,13,0,None,0,0,0,0,None,1404598514.06800,8,2014_Jul_05_1513,59.8313344,SSVP5_75,001,001,
13,0,13,0,None,1,0,1,0,None,1404598514.20000,8,2014_Jul_05_1513,59.8313344,SSVP5_75,001,001,
13,0,13,0,None,2,0,2,0,None,1404598514.33500,8,2014_Jul_05_1513,59.8313344,SSVP5_75,001,001,
13,0,13,0,None,3,0,3,0,None,1404598514.47900,8,2014_Jul_05_1513,59.8313344,SSVP5_75,001,001,
13,0,13,0,None,4,0,4,0,None,1404598514.62300,8,2014_Jul_05_1513,59.8313344,SSVP5_75,001,001,
13,0,13,0,None,5,0,5,0,None,1404598514.75200,8,2014_Jul_05_1513,59.8313344,SSVP5_75,001,001,
13,0,13,0,None,6,0,6,0,None,1404598514.88600,8,2014_Jul_05_1513,59.8313344,SSVP5_75,001,001,
13,0,13,0,None,7,0,7,0,None,1404598515.01900,8,2014_Jul_05_1513,59.8313344,SSVP5_75,001,001,
13,0,13,0,None,8,0,8,0,None,1404598515.15400,8,2014_Jul_05_1513,59.8313344,SSVP5_75,001,001,
13,0,13,0,None,9,0,9,0,None,1404598515.28600,8,2014_Jul_05_1513,59.8313344,SSVP5_75,001,001,
13,0,13,0,None,10,0,10,0,None,1404598515.42000,8,2014_Jul_05_1513,59.8313344,SSVP5_75,001,001,
13,0,13,0,None,11,0,11,0,None,1404598515.55500,8,2014_Jul_05_1513,59.8313344,SSVP5_75,001,001,
13,0,13,0,None,12,0,12,0,None,1404598515.69100,8,2014_Jul_05_1513,59.8313344,SSVP5_75,001,001,
13,0,13,0,None,13,0,13,0,None,1404598515.82100,8,2014_Jul_05_1513,59.8313344,SSVP5_75,001,001,
13,0,13,0,None,14,0,14,0,None,1404598515.95800,8,2014_Jul_05_1513,59.8313344,SSVP5_75,001,001,
13,0,13,0,None,15,0,15,0,None,1404598516.08900,8,2014_Jul_05_1513,59.8313344,SSVP5_75,001,001,
13,0,13,0,None,16,0,16,0,None,1404598516.22200,8,2014_Jul_05_1513,59.8313344,SSVP5_75,001,001,
13,0,13,0,None,17,0,17,0,None,1404598516.36000,8,2014_Jul_05_1513,59.8313344,SSVP5_75,001,001,
13,0,13,0,None,18,0,18,0,None,1404598516.49000,8,2014_Jul_05_1513,59.8313344,SSVP5_75,001,001,
13,0,13,0,None,19,0,19,0,None,1404598516.62300,8,2014_Jul_05_1513,59.8313344,SSVP5_75,001,001,
13,0,13,0,None,20,0,20,0,None,1404598516.76000,8,2014_Jul_05_1513,59.8313344,SSVP5_75,001,001,
13,0,13,0,None,21,0,21,0,None,1404598516.89100,8,2014_Jul_05_1513,59.8313344,SSVP5_75,001,001,
13,0,13,0,None,22,0,22,0,None,1404598517.02800,8,2014_Jul_05_1513,59.8313344,SSVP5_75,001,001,
13,0,13,0,None,23,0,23,0,None,1404598517.15800,8,2014_Jul_05_1513,59.8313344,SSVP5_75,001,001,
13,0,13,0,None,24,0,24,0,None,1404598517.29300,8,2014_Jul_05_1513,59.8313344,SSVP5_75,001,001,
13,0,13,0,None,25,0,25,0,None,1404598517.42400,8,2014_Jul_05_1513,59.8313344,SSVP5_75,001,001,
13,0,13,0,None,26,0,26,0,None,1404598517.55900,8,2014_Jul_05_1513,59.8313344,SSVP5_75,001,001,
13,0,13,0,None,27,0,27,0,None,1404598517.69100,8,2014_Jul_05_1513,59.8313344,SSVP5_75,001,001,
13,0,13,0,None,28,0,28,0,None,1404598517.82500,8,2014_Jul_05_1513,59.8313344,SSVP5_75,001,001,
13,0,13,0,None,29,0,29,0,None,1404598517.96000,8,2014_Jul_05_1513,59.8313344,SSVP5_75,001,001,
13,0,13,0,None,,,,,,,,2014_Jul_05_1513,59.8313344,SSVP5_75,001,001,
14,0,14,0,None,0,0,0,0,None,1404598520.11300,8,2014_Jul_05_1513,59.8313344,SSVP5_75,001,001,
14,0,14,0,None,1,0,1,0,None,1404598520.25000,8,2014_Jul_05_1513,59.8313344,SSVP5_75,001,001,
14,0,14,0,None,2,0,2,0,None,1404598520.38100,8,2014_Jul_05_1513,59.8313344,SSVP5_75,001,001,
14,0,14,0,None,3,0,3,0,None,1404598520.51300,8,2014_Jul_05_1513,59.8313344,SSVP5_75,001,001,
14,0,14,0,None,4,0,4,0,None,1404598520.65000,8,2014_Jul_05_1513,59.8313344,SSVP5_75,001,001,
14,0,14,0,None,5,0,5,0,None,1404598520.78300,8,2014_Jul_05_1513,59.8313344,SSVP5_75,001,001,
14,0,14,0,None,6,0,6,0,None,1404598520.91900,8,2014_Jul_05_1513,59.8313344,SSVP5_75,001,001,
14,0,14,0,None,7,0,7,0,None,1404598521.04900,8,2014_Jul_05_1513,59.8313344,SSVP5_75,001,001,
14,0,14,0,None,8,0,8,0,None,1404598521.18100,8,2014_Jul_05_1513,59.8313344,SSVP5_75,001,001,
14,0,14,0,None,9,0,9,0,None,1404598521.31900,8,2014_Jul_05_1513,59.8313344,SSVP5_75,001,001,
14,0,14,0,None,10,0,10,0,None,1404598521.45000,8,2014_Jul_05_1513,59.8313344,SSVP5_75,001,001,
14,0,14,0,None,11,0,11,0,None,1404598521.58200,8,2014_Jul_05_1513,59.8313344,SSVP5_75,001,001,
14,0,14,0,None,12,0,12,0,None,1404598521.71600,8,2014_Jul_05_1513,59.8313344,SSVP5_75,001,001,
14,0,14,0,None,13,0,13,0,None,1404598521.84900,8,2014_Jul_05_1513,59.8313344,SSVP5_75,001,001,
14,0,14,0,None,14,0,14,0,None,1404598521.98300,8,2014_Jul_05_1513,59.8313344,SSVP5_75,001,001,
14,0,14,0,None,15,0,15,0,None,1404598522.11800,8,2014_Jul_05_1513,59.8313344,SSVP5_75,001,001,
14,0,14,0,None,16,0,16,0,None,1404598522.25000,8,2014_Jul_05_1513,59.8313344,SSVP5_75,001,001,
14,0,14,0,None,17,0,17,0,None,1404598522.38400,8,2014_Jul_05_1513,59.8313344,SSVP5_75,001,001,
14,0,14,0,None,18,0,18,0,None,1404598522.51900,8,2014_Jul_05_1513,59.8313344,SSVP5_75,001,001,
14,0,14,0,None,19,0,19,0,None,1404598522.65100,8,2014_Jul_05_1513,59.8313344,SSVP5_75,001,001,
14,0,14,0,None,20,0,20,0,None,1404598522.78500,8,2014_Jul_05_1513,59.8313344,SSVP5_75,001,001,
14,0,14,0,None,21,0,21,0,None,1404598522.92000,8,2014_Jul_05_1513,59.8313344,SSVP5_75,001,001,
14,0,14,0,None,22,0,22,0,None,1404598523.05200,8,2014_Jul_05_1513,59.8313344,SSVP5_75,001,001,
14,0,14,0,None,23,0,23,0,None,1404598523.18500,8,2014_Jul_05_1513,59.8313344,SSVP5_75,001,001,
14,0,14,0,None,24,0,24,0,None,1404598523.31900,8,2014_Jul_05_1513,59.8313344,SSVP5_75,001,001,
14,0,14,0,None,25,0,25,0,None,1404598523.45200,8,2014_Jul_05_1513,59.8313344,SSVP5_75,001,001,
14,0,14,0,None,26,0,26,0,None,1404598523.58600,8,2014_Jul_05_1513,59.8313344,SSVP5_75,001,001,
14,0,14,0,None,27,0,27,0,None,1404598523.72000,8,2014_Jul_05_1513,59.8313344,SSVP5_75,001,001,
14,0,14,0,None,28,0,28,0,None,1404598523.85300,8,2014_Jul_05_1513,59.8313344,SSVP5_75,001,001,
14,0,14,0,None,29,0,29,0,None,1404598523.98800,8,2014_Jul_05_1513,59.8313344,SSVP5_75,001,001,
14,0,14,0,None,,,,,,,,2014_Jul_05_1513,59.8313344,SSVP5_75,001,001,
15,0,15,0,None,0,0,0,0,None,1404598526.14500,8,2014_Jul_05_1513,59.8313344,SSVP5_75,001,001,
15,0,15,0,None,1,0,1,0,None,1404598526.27400,8,2014_Jul_05_1513,59.8313344,SSVP5_75,001,001,
15,0,15,0,None,2,0,2,0,None,1404598526.41000,8,2014_Jul_05_1513,59.8313344,SSVP5_75,001,001,
15,0,15,0,None,3,0,3,0,None,1404598526.54200,8,2014_Jul_05_1513,59.8313344,SSVP5_75,001,001,
15,0,15,0,None,4,0,4,0,None,1404598526.67500,8,2014_Jul_05_1513,59.8313344,SSVP5_75,001,001,
15,0,15,0,None,5,0,5,0,None,1404598526.80900,8,2014_Jul_05_1513,59.8313344,SSVP5_75,001,001,
15,0,15,0,None,6,0,6,0,None,1404598526.94600,8,2014_Jul_05_1513,59.8313344,SSVP5_75,001,001,
15,0,15,0,None,7,0,7,0,None,1404598527.07700,8,2014_Jul_05_1513,59.8313344,SSVP5_75,001,001,
15,0,15,0,None,8,0,8,0,None,1404598527.21400,8,2014_Jul_05_1513,59.8313344,SSVP5_75,001,001,
15,0,15,0,None,9,0,9,0,None,1404598527.34300,8,2014_Jul_05_1513,59.8313344,SSVP5_75,001,001,
15,0,15,0,None,10,0,10,0,None,1404598527.48100,8,2014_Jul_05_1513,59.8313344,SSVP5_75,001,001,
15,0,15,0,None,11,0,11,0,None,1404598527.62900,8,2014_Jul_05_1513,59.8313344,SSVP5_75,001,001,
15,0,15,0,None,12,0,12,0,None,1404598527.76100,8,2014_Jul_05_1513,59.8313344,SSVP5_75,001,001,
15,0,15,0,None,13,0,13,0,None,1404598527.89800,8,2014_Jul_05_1513,59.8313344,SSVP5_75,001,001,
15,0,15,0,None,14,0,14,0,None,1404598528.03200,8,2014_Jul_05_1513,59.8313344,SSVP5_75,001,001,
15,0,15,0,None,15,0,15,0,None,1404598528.16200,8,2014_Jul_05_1513,59.8313344,SSVP5_75,001,001,
15,0,15,0,None,16,0,16,0,None,1404598528.29500,8,2014_Jul_05_1513,59.8313344,SSVP5_75,001,001,
15,0,15,0,None,17,0,17,0,None,1404598528.42900,8,2014_Jul_05_1513,59.8313344,SSVP5_75,001,001,
15,0,15,0,None,18,0,18,0,None,1404598528.56400,8,2014_Jul_05_1513,59.8313344,SSVP5_75,001,001,
15,0,15,0,None,19,0,19,0,None,1404598528.69900,8,2014_Jul_05_1513,59.8313344,SSVP5_75,001,001,
15,0,15,0,None,20,0,20,0,None,1404598528.83000,8,2014_Jul_05_1513,59.8313344,SSVP5_75,001,001,
15,0,15,0,None,21,0,21,0,None,1404598528.96300,8,2014_Jul_05_1513,59.8313344,SSVP5_75,001,001,
15,0,15,0,None,22,0,22,0,None,1404598529.09600,8,2014_Jul_05_1513,59.8313344,SSVP5_75,001,001,
15,0,15,0,None,23,0,23,0,None,1404598529.23200,8,2014_Jul_05_1513,59.8313344,SSVP5_75,001,001,
15,0,15,0,None,24,0,24,0,None,1404598529.36400,8,2014_Jul_05_1513,59.8313344,SSVP5_75,001,001,
15,0,15,0,None,25,0,25,0,None,1404598529.49800,8,2014_Jul_05_1513,59.8313344,SSVP5_75,001,001,
15,0,15,0,None,26,0,26,0,None,1404598529.63100,8,2014_Jul_05_1513,59.8313344,SSVP5_75,001,001,
15,0,15,0,None,27,0,27,0,None,1404598529.76500,8,2014_Jul_05_1513,59.8313344,SSVP5_75,001,001,
15,0,15,0,None,28,0,28,0,None,1404598529.90000,8,2014_Jul_05_1513,59.8313344,SSVP5_75,001,001,
15,0,15,0,None,29,0,29,0,None,1404598530.03100,8,2014_Jul_05_1513,59.8313344,SSVP5_75,001,001,
15,0,15,0,None,,,,,,,,2014_Jul_05_1513,59.8313344,SSVP5_75,001,001,
16,0,16,0,None,0,0,0,0,None,1404598532.23800,8,2014_Jul_05_1513,59.8313344,SSVP5_75,001,001,
16,0,16,0,None,1,0,1,0,None,1404598532.37300,8,2014_Jul_05_1513,59.8313344,SSVP5_75,001,001,
16,0,16,0,None,2,0,2,0,None,1404598532.50400,8,2014_Jul_05_1513,59.8313344,SSVP5_75,001,001,
16,0,16,0,None,3,0,3,0,None,1404598532.63700,8,2014_Jul_05_1513,59.8313344,SSVP5_75,001,001,
16,0,16,0,None,4,0,4,0,None,1404598532.77000,8,2014_Jul_05_1513,59.8313344,SSVP5_75,001,001,
16,0,16,0,None,5,0,5,0,None,1404598532.90500,8,2014_Jul_05_1513,59.8313344,SSVP5_75,001,001,
16,0,16,0,None,6,0,6,0,None,1404598533.04100,8,2014_Jul_05_1513,59.8313344,SSVP5_75,001,001,
16,0,16,0,None,7,0,7,0,None,1404598533.17100,8,2014_Jul_05_1513,59.8313344,SSVP5_75,001,001,
16,0,16,0,None,8,0,8,0,None,1404598533.30600,8,2014_Jul_05_1513,59.8313344,SSVP5_75,001,001,
16,0,16,0,None,9,0,9,0,None,1404598533.44200,8,2014_Jul_05_1513,59.8313344,SSVP5_75,001,001,
16,0,16,0,None,10,0,10,0,None,1404598533.57400,8,2014_Jul_05_1513,59.8313344,SSVP5_75,001,001,
16,0,16,0,None,11,0,11,0,None,1404598533.70600,8,2014_Jul_05_1513,59.8313344,SSVP5_75,001,001,
16,0,16,0,None,12,0,12,0,None,1404598533.84100,8,2014_Jul_05_1513,59.8313344,SSVP5_75,001,001,
16,0,16,0,None,13,0,13,0,None,1404598533.97500,8,2014_Jul_05_1513,59.8313344,SSVP5_75,001,001,
16,0,16,0,None,14,0,14,0,None,1404598534.10700,8,2014_Jul_05_1513,59.8313344,SSVP5_75,001,001,
16,0,16,0,None,15,0,15,0,None,1404598534.24000,8,2014_Jul_05_1513,59.8313344,SSVP5_75,001,001,
16,0,16,0,None,16,0,16,0,None,1404598534.37400,8,2014_Jul_05_1513,59.8313344,SSVP5_75,001,001,
16,0,16,0,None,17,0,17,0,None,1404598534.51200,8,2014_Jul_05_1513,59.8313344,SSVP5_75,001,001,
16,0,16,0,None,18,0,18,0,None,1404598534.64300,8,2014_Jul_05_1513,59.8313344,SSVP5_75,001,001,
16,0,16,0,None,19,0,19,0,None,1404598534.77500,8,2014_Jul_05_1513,59.8313344,SSVP5_75,001,001,
16,0,16,0,None,20,0,20,0,None,1404598534.90800,8,2014_Jul_05_1513,59.8313344,SSVP5_75,001,001,
16,0,16,0,None,21,0,21,0,None,1404598535.04200,8,2014_Jul_05_1513,59.8313344,SSVP5_75,001,001,
16,0,16,0,None,22,0,22,0,None,1404598535.17900,8,2014_Jul_05_1513,59.8313344,SSVP5_75,001,001,
16,0,16,0,None,23,0,23,0,None,1404598535.30900,8,2014_Jul_05_1513,59.8313344,SSVP5_75,001,001,
16,0,16,0,None,24,0,24,0,None,1404598535.44300,8,2014_Jul_05_1513,59.8313344,SSVP5_75,001,001,
16,0,16,0,None,25,0,25,0,None,1404598535.58000,8,2014_Jul_05_1513,59.8313344,SSVP5_75,001,001,
16,0,16,0,None,26,0,26,0,None,1404598535.71000,8,2014_Jul_05_1513,59.8313344,SSVP5_75,001,001,
16,0,16,0,None,27,0,27,0,None,1404598535.84700,8,2014_Jul_05_1513,59.8313344,SSVP5_75,001,001,
16,0,16,0,None,28,0,28,0,None,1404598535.97800,8,2014_Jul_05_1513,59.8313344,SSVP5_75,001,001,
16,0,16,0,None,29,0,29,0,None,1404598536.11500,8,2014_Jul_05_1513,59.8313344,SSVP5_75,001,001,
16,0,16,0,None,,,,,,,,2014_Jul_05_1513,59.8313344,SSVP5_75,001,001,
17,0,17,0,None,0,0,0,0,None,1404598538.26500,8,2014_Jul_05_1513,59.8313344,SSVP5_75,001,001,
17,0,17,0,None,1,0,1,0,None,1404598538.39900,8,2014_Jul_05_1513,59.8313344,SSVP5_75,001,001,
17,0,17,0,None,2,0,2,0,None,1404598538.53200,8,2014_Jul_05_1513,59.8313344,SSVP5_75,001,001,
17,0,17,0,None,3,0,3,0,None,1404598538.66500,8,2014_Jul_05_1513,59.8313344,SSVP5_75,001,001,
17,0,17,0,None,4,0,4,0,None,1404598538.80000,8,2014_Jul_05_1513,59.8313344,SSVP5_75,001,001,
17,0,17,0,None,5,0,5,0,None,1404598538.93500,8,2014_Jul_05_1513,59.8313344,SSVP5_75,001,001,
17,0,17,0,None,6,0,6,0,None,1404598539.07000,8,2014_Jul_05_1513,59.8313344,SSVP5_75,001,001,
17,0,17,0,None,7,0,7,0,None,1404598539.20100,8,2014_Jul_05_1513,59.8313344,SSVP5_75,001,001,
17,0,17,0,None,8,0,8,0,None,1404598539.33300,8,2014_Jul_05_1513,59.8313344,SSVP5_75,001,001,
17,0,17,0,None,9,0,9,0,None,1404598539.47100,8,2014_Jul_05_1513,59.8313344,SSVP5_75,001,001,
17,0,17,0,None,10,0,10,0,None,1404598539.61900,8,2014_Jul_05_1513,59.8313344,SSVP5_75,001,001,
17,0,17,0,None,11,0,11,0,None,1404598539.75100,8,2014_Jul_05_1513,59.8313344,SSVP5_75,001,001,
17,0,17,0,None,12,0,12,0,None,1404598539.88500,8,2014_Jul_05_1513,59.8313344,SSVP5_75,001,001,
17,0,17,0,None,13,0,13,0,None,1404598540.02000,8,2014_Jul_05_1513,59.8313344,SSVP5_75,001,001,
17,0,17,0,None,14,0,14,0,None,1404598540.15200,8,2014_Jul_05_1513,59.8313344,SSVP5_75,001,001,
17,0,17,0,None,15,0,15,0,None,1404598540.28700,8,2014_Jul_05_1513,59.8313344,SSVP5_75,001,001,
17,0,17,0,None,16,0,16,0,None,1404598540.41900,8,2014_Jul_05_1513,59.8313344,SSVP5_75,001,001,
17,0,17,0,None,17,0,17,0,None,1404598540.55300,8,2014_Jul_05_1513,59.8313344,SSVP5_75,001,001,
17,0,17,0,None,18,0,18,0,None,1404598540.68800,8,2014_Jul_05_1513,59.8313344,SSVP5_75,001,001,
17,0,17,0,None,19,0,19,0,None,1404598540.81900,8,2014_Jul_05_1513,59.8313344,SSVP5_75,001,001,
17,0,17,0,None,20,0,20,0,None,1404598540.95400,8,2014_Jul_05_1513,59.8313344,SSVP5_75,001,001,
17,0,17,0,None,21,0,21,0,None,1404598541.08700,8,2014_Jul_05_1513,59.8313344,SSVP5_75,001,001,
17,0,17,0,None,22,0,22,0,None,1404598541.22000,8,2014_Jul_05_1513,59.8313344,SSVP5_75,001,001,
17,0,17,0,None,23,0,23,0,None,1404598541.35500,8,2014_Jul_05_1513,59.8313344,SSVP5_75,001,001,
17,0,17,0,None,24,0,24,0,None,1404598541.49100,8,2014_Jul_05_1513,59.8313344,SSVP5_75,001,001,
17,0,17,0,None,25,0,25,0,None,1404598541.62200,8,2014_Jul_05_1513,59.8313344,SSVP5_75,001,001,
17,0,17,0,None,26,0,26,0,None,1404598541.75600,8,2014_Jul_05_1513,59.8313344,SSVP5_75,001,001,
17,0,17,0,None,27,0,27,0,None,1404598541.89700,8,2014_Jul_05_1513,59.8313344,SSVP5_75,001,001,
17,0,17,0,None,28,0,28,0,None,1404598542.02200,8,2014_Jul_05_1513,59.8313344,SSVP5_75,001,001,
17,0,17,0,None,29,0,29,0,None,1404598542.15500,8,2014_Jul_05_1513,59.8313344,SSVP5_75,001,001,
17,0,17,0,None,,,,,,,,2014_Jul_05_1513,59.8313344,SSVP5_75,001,001,
18,0,18,0,None,0,0,0,0,None,1404598544.32600,8,2014_Jul_05_1513,59.8313344,SSVP5_75,001,001,
18,0,18,0,None,1,0,1,0,None,1404598544.46400,8,2014_Jul_05_1513,59.8313344,SSVP5_75,001,001,
18,0,18,0,None,2,0,2,0,None,1404598544.59400,8,2014_Jul_05_1513,59.8313344,SSVP5_75,001,001,
18,0,18,0,None,3,0,3,0,None,1404598544.73100,8,2014_Jul_05_1513,59.8313344,SSVP5_75,001,001,
18,0,18,0,None,4,0,4,0,None,1404598544.86100,8,2014_Jul_05_1513,59.8313344,SSVP5_75,001,001,
18,0,18,0,None,5,0,5,0,None,1404598544.99400,8,2014_Jul_05_1513,59.8313344,SSVP5_75,001,001,
18,0,18,0,None,6,0,6,0,None,1404598545.13200,8,2014_Jul_05_1513,59.8313344,SSVP5_75,001,001,
18,0,18,0,None,7,0,7,0,None,1404598545.26200,8,2014_Jul_05_1513,59.8313344,SSVP5_75,001,001,
18,0,18,0,None,8,0,8,0,None,1404598545.39900,8,2014_Jul_05_1513,59.8313344,SSVP5_75,001,001,
18,0,18,0,None,9,0,9,0,None,1404598545.52900,8,2014_Jul_05_1513,59.8313344,SSVP5_75,001,001,
18,0,18,0,None,10,0,10,0,None,1404598545.66200,8,2014_Jul_05_1513,59.8313344,SSVP5_75,001,001,
18,0,18,0,None,11,0,11,0,None,1404598545.79600,8,2014_Jul_05_1513,59.8313344,SSVP5_75,001,001,
18,0,18,0,None,12,0,12,0,None,1404598545.92900,8,2014_Jul_05_1513,59.8313344,SSVP5_75,001,001,
18,0,18,0,None,13,0,13,0,None,1404598546.06300,8,2014_Jul_05_1513,59.8313344,SSVP5_75,001,001,
18,0,18,0,None,14,0,14,0,None,1404598546.19600,8,2014_Jul_05_1513,59.8313344,SSVP5_75,001,001,
18,0,18,0,None,15,0,15,0,None,1404598546.33000,8,2014_Jul_05_1513,59.8313344,SSVP5_75,001,001,
18,0,18,0,None,16,0,16,0,None,1404598546.46700,8,2014_Jul_05_1513,59.8313344,SSVP5_75,001,001,
18,0,18,0,None,17,0,17,0,None,1404598546.59800,8,2014_Jul_05_1513,59.8313344,SSVP5_75,001,001,
18,0,18,0,None,18,0,18,0,None,1404598546.73200,8,2014_Jul_05_1513,59.8313344,SSVP5_75,001,001,
18,0,18,0,None,19,0,19,0,None,1404598546.86800,8,2014_Jul_05_1513,59.8313344,SSVP5_75,001,001,
18,0,18,0,None,20,0,20,0,None,1404598546.99800,8,2014_Jul_05_1513,59.8313344,SSVP5_75,001,001,
18,0,18,0,None,21,0,21,0,None,1404598547.13500,8,2014_Jul_05_1513,59.8313344,SSVP5_75,001,001,
18,0,18,0,None,22,0,22,0,None,1404598547.26500,8,2014_Jul_05_1513,59.8313344,SSVP5_75,001,001,
18,0,18,0,None,23,0,23,0,None,1404598547.40000,8,2014_Jul_05_1513,59.8313344,SSVP5_75,001,001,
18,0,18,0,None,24,0,24,0,None,1404598547.53300,8,2014_Jul_05_1513,59.8313344,SSVP5_75,001,001,
18,0,18,0,None,25,0,25,0,None,1404598547.66600,8,2014_Jul_05_1513,59.8313344,SSVP5_75,001,001,
18,0,18,0,None,26,0,26,0,None,1404598547.80000,8,2014_Jul_05_1513,59.8313344,SSVP5_75,001,001,
18,0,18,0,None,27,0,27,0,None,1404598547.93300,8,2014_Jul_05_1513,59.8313344,SSVP5_75,001,001,
18,0,18,0,None,28,0,28,0,None,1404598548.06800,8,2014_Jul_05_1513,59.8313344,SSVP5_75,001,001,
18,0,18,0,None,29,0,29,0,None,1404598548.20000,8,2014_Jul_05_1513,59.8313344,SSVP5_75,001,001,
18,0,18,0,None,,,,,,,,2014_Jul_05_1513,59.8313344,SSVP5_75,001,001,
19,0,19,0,None,0,0,0,0,None,1404598550.38800,8,2014_Jul_05_1513,59.8313344,SSVP5_75,001,001,
19,0,19,0,None,1,0,1,0,None,1404598550.52500,8,2014_Jul_05_1513,59.8313344,SSVP5_75,001,001,
19,0,19,0,None,2,0,2,0,None,1404598550.65700,8,2014_Jul_05_1513,59.8313344,SSVP5_75,001,001,
19,0,19,0,None,3,0,3,0,None,1404598550.78800,8,2014_Jul_05_1513,59.8313344,SSVP5_75,001,001,
19,0,19,0,None,4,0,4,0,None,1404598550.93900,8,2014_Jul_05_1513,59.8313344,SSVP5_75,001,001,
19,0,19,0,None,5,0,5,0,None,1404598551.09000,8,2014_Jul_05_1513,59.8313344,SSVP5_75,001,001,
19,0,19,0,None,6,0,6,0,None,1404598551.22700,8,2014_Jul_05_1513,59.8313344,SSVP5_75,001,001,
19,0,19,0,None,7,0,7,0,None,1404598551.36100,8,2014_Jul_05_1513,59.8313344,SSVP5_75,001,001,
19,0,19,0,None,8,0,8,0,None,1404598551.49500,8,2014_Jul_05_1513,59.8313344,SSVP5_75,001,001,
19,0,19,0,None,9,0,9,0,None,1404598551.62800,8,2014_Jul_05_1513,59.8313344,SSVP5_75,001,001,
19,0,19,0,None,10,0,10,0,None,1404598551.75800,8,2014_Jul_05_1513,59.8313344,SSVP5_75,001,001,
19,0,19,0,None,11,0,11,0,None,1404598551.89500,8,2014_Jul_05_1513,59.8313344,SSVP5_75,001,001,
19,0,19,0,None,12,0,12,0,None,1404598552.02500,8,2014_Jul_05_1513,59.8313344,SSVP5_75,001,001,
19,0,19,0,None,13,0,13,0,None,1404598552.15900,8,2014_Jul_05_1513,59.8313344,SSVP5_75,001,001,
19,0,19,0,None,14,0,14,0,None,1404598552.29600,8,2014_Jul_05_1513,59.8313344,SSVP5_75,001,001,
19,0,19,0,None,15,0,15,0,None,1404598552.42600,8,2014_Jul_05_1513,59.8313344,SSVP5_75,001,001,
19,0,19,0,None,16,0,16,0,None,1404598552.55900,8,2014_Jul_05_1513,59.8313344,SSVP5_75,001,001,
19,0,19,0,None,17,0,17,0,None,1404598552.69300,8,2014_Jul_05_1513,59.8313344,SSVP5_75,001,001,
19,0,19,0,None,18,0,18,0,None,1404598552.82700,8,2014_Jul_05_1513,59.8313344,SSVP5_75,001,001,
19,0,19,0,None,19,0,19,0,None,1404598552.96400,8,2014_Jul_05_1513,59.8313344,SSVP5_75,001,001,
19,0,19,0,None,20,0,20,0,None,1404598553.09400,8,2014_Jul_05_1513,59.8313344,SSVP5_75,001,001,
19,0,19,0,None,21,0,21,0,None,1404598553.22800,8,2014_Jul_05_1513,59.8313344,SSVP5_75,001,001,
19,0,19,0,None,22,0,22,0,None,1404598553.36500,8,2014_Jul_05_1513,59.8313344,SSVP5_75,001,001,
19,0,19,0,None,23,0,23,0,None,1404598553.49500,8,2014_Jul_05_1513,59.8313344,SSVP5_75,001,001,
19,0,19,0,None,24,0,24,0,None,1404598553.62800,8,2014_Jul_05_1513,59.8313344,SSVP5_75,001,001,
19,0,19,0,None,25,0,25,0,None,1404598553.76200,8,2014_Jul_05_1513,59.8313344,SSVP5_75,001,001,
19,0,19,0,None,26,0,26,0,None,1404598553.89500,8,2014_Jul_05_1513,59.8313344,SSVP5_75,001,001,
19,0,19,0,None,27,0,27,0,None,1404598554.03300,8,2014_Jul_05_1513,59.8313344,SSVP5_75,001,001,
19,0,19,0,None,28,0,28,0,None,1404598554.16300,8,2014_Jul_05_1513,59.8313344,SSVP5_75,001,001,
19,0,19,0,None,29,0,29,0,None,1404598554.29600,8,2014_Jul_05_1513,59.8313344,SSVP5_75,001,001,
19,0,19,0,None,,,,,,,,2014_Jul_05_1513,59.8313344,SSVP5_75,001,001,
20,0,20,0,None,0,0,0,0,None,1404598556.43300,8,2014_Jul_05_1513,59.8313344,SSVP5_75,001,001,
20,0,20,0,None,1,0,1,0,None,1404598556.57100,8,2014_Jul_05_1513,59.8313344,SSVP5_75,001,001,
20,0,20,0,None,2,0,2,0,None,1404598556.70100,8,2014_Jul_05_1513,59.8313344,SSVP5_75,001,001,
20,0,20,0,None,3,0,3,0,None,1404598556.83800,8,2014_Jul_05_1513,59.8313344,SSVP5_75,001,001,
20,0,20,0,None,4,0,4,0,None,1404598556.96800,8,2014_Jul_05_1513,59.8313344,SSVP5_75,001,001,
20,0,20,0,None,5,0,5,0,None,1404598557.10500,8,2014_Jul_05_1513,59.8313344,SSVP5_75,001,001,
20,0,20,0,None,6,0,6,0,None,1404598557.23500,8,2014_Jul_05_1513,59.8313344,SSVP5_75,001,001,
20,0,20,0,None,7,0,7,0,None,1404598557.36900,8,2014_Jul_05_1513,59.8313344,SSVP5_75,001,001,
20,0,20,0,None,8,0,8,0,None,1404598557.50600,8,2014_Jul_05_1513,59.8313344,SSVP5_75,001,001,
20,0,20,0,None,9,0,9,0,None,1404598557.63600,8,2014_Jul_05_1513,59.8313344,SSVP5_75,001,001,
20,0,20,0,None,10,0,10,0,None,1404598557.76900,8,2014_Jul_05_1513,59.8313344,SSVP5_75,001,001,
20,0,20,0,None,11,0,11,0,None,1404598557.90700,8,2014_Jul_05_1513,59.8313344,SSVP5_75,001,001,
20,0,20,0,None,12,0,12,0,None,1404598558.03700,8,2014_Jul_05_1513,59.8313344,SSVP5_75,001,001,
20,0,20,0,None,13,0,13,0,None,1404598558.17000,8,2014_Jul_05_1513,59.8313344,SSVP5_75,001,001,
20,0,20,0,None,14,0,14,0,None,1404598558.30400,8,2014_Jul_05_1513,59.8313344,SSVP5_75,001,001,
20,0,20,0,None,15,0,15,0,None,1404598558.43800,8,2014_Jul_05_1513,59.8313344,SSVP5_75,001,001,
20,0,20,0,None,16,0,16,0,None,1404598558.57500,8,2014_Jul_05_1513,59.8313344,SSVP5_75,001,001,
20,0,20,0,None,17,0,17,0,None,1404598558.70500,8,2014_Jul_05_1513,59.8313344,SSVP5_75,001,001,
20,0,20,0,None,18,0,18,0,None,1404598558.83800,8,2014_Jul_05_1513,59.8313344,SSVP5_75,001,001,
20,0,20,0,None,19,0,19,0,None,1404598558.97600,8,2014_Jul_05_1513,59.8313344,SSVP5_75,001,001,
20,0,20,0,None,20,0,20,0,None,1404598559.10500,8,2014_Jul_05_1513,59.8313344,SSVP5_75,001,001,
20,0,20,0,None,21,0,21,0,None,1404598559.23900,8,2014_Jul_05_1513,59.8313344,SSVP5_75,001,001,
20,0,20,0,None,22,0,22,0,None,1404598559.37200,8,2014_Jul_05_1513,59.8313344,SSVP5_75,001,001,
20,0,20,0,None,23,0,23,0,None,1404598559.51000,8,2014_Jul_05_1513,59.8313344,SSVP5_75,001,001,
20,0,20,0,None,24,0,24,0,None,1404598559.64400,8,2014_Jul_05_1513,59.8313344,SSVP5_75,001,001,
20,0,20,0,None,25,0,25,0,None,1404598559.77300,8,2014_Jul_05_1513,59.8313344,SSVP5_75,001,001,
20,0,20,0,None,26,0,26,0,None,1404598559.90700,8,2014_Jul_05_1513,59.8313344,SSVP5_75,001,001,
20,0,20,0,None,27,0,27,0,None,1404598560.04400,8,2014_Jul_05_1513,59.8313344,SSVP5_75,001,001,
20,0,20,0,None,28,0,28,0,None,1404598560.17400,8,2014_Jul_05_1513,59.8313344,SSVP5_75,001,001,
20,0,20,0,None,29,0,29,0,None,1404598560.31100,8,2014_Jul_05_1513,59.8313344,SSVP5_75,001,001,
20,0,20,0,None,,,,,,,,2014_Jul_05_1513,59.8313344,SSVP5_75,001,001,
21,0,21,0,None,0,0,0,0,None,1404598562.46500,8,2014_Jul_05_1513,59.8313344,SSVP5_75,001,001,
21,0,21,0,None,1,0,1,0,None,1404598562.59500,8,2014_Jul_05_1513,59.8313344,SSVP5_75,001,001,
21,0,21,0,None,2,0,2,0,None,1404598562.72900,8,2014_Jul_05_1513,59.8313344,SSVP5_75,001,001,
21,0,21,0,None,3,0,3,0,None,1404598562.86600,8,2014_Jul_05_1513,59.8313344,SSVP5_75,001,001,
21,0,21,0,None,4,0,4,0,None,1404598562.99600,8,2014_Jul_05_1513,59.8313344,SSVP5_75,001,001,
21,0,21,0,None,5,0,5,0,None,1404598563.13400,8,2014_Jul_05_1513,59.8313344,SSVP5_75,001,001,
21,0,21,0,None,6,0,6,0,None,1404598563.26300,8,2014_Jul_05_1513,59.8313344,SSVP5_75,001,001,
21,0,21,0,None,7,0,7,0,None,1404598563.39700,8,2014_Jul_05_1513,59.8313344,SSVP5_75,001,001,
21,0,21,0,None,8,0,8,0,None,1404598563.53400,8,2014_Jul_05_1513,59.8313344,SSVP5_75,001,001,
21,0,21,0,None,9,0,9,0,None,1404598563.66400,8,2014_Jul_05_1513,59.8313344,SSVP5_75,001,001,
21,0,21,0,None,10,0,10,0,None,1404598563.79800,8,2014_Jul_05_1513,59.8313344,SSVP5_75,001,001,
21,0,21,0,None,11,0,11,0,None,1404598563.93500,8,2014_Jul_05_1513,59.8313344,SSVP5_75,001,001,
21,0,21,0,None,12,0,12,0,None,1404598564.06500,8,2014_Jul_05_1513,59.8313344,SSVP5_75,001,001,
21,0,21,0,None,13,0,13,0,None,1404598564.20200,8,2014_Jul_05_1513,59.8313344,SSVP5_75,001,001,
21,0,21,0,None,14,0,14,0,None,1404598564.33200,8,2014_Jul_05_1513,59.8313344,SSVP5_75,001,001,
21,0,21,0,None,15,0,15,0,None,1404598564.46600,8,2014_Jul_05_1513,59.8313344,SSVP5_75,001,001,
21,0,21,0,None,16,0,16,0,None,1404598564.60300,8,2014_Jul_05_1513,59.8313344,SSVP5_75,001,001,
21,0,21,0,None,17,0,17,0,None,1404598564.73200,8,2014_Jul_05_1513,59.8313344,SSVP5_75,001,001,
21,0,21,0,None,18,0,18,0,None,1404598564.86700,8,2014_Jul_05_1513,59.8313344,SSVP5_75,001,001,
21,0,21,0,None,19,0,19,0,None,1404598565.00400,8,2014_Jul_05_1513,59.8313344,SSVP5_75,001,001,
21,0,21,0,None,20,0,20,0,None,1404598565.13300,8,2014_Jul_05_1513,59.8313344,SSVP5_75,001,001,
21,0,21,0,None,21,0,21,0,None,1404598565.27100,8,2014_Jul_05_1513,59.8313344,SSVP5_75,001,001,
21,0,21,0,None,22,0,22,0,None,1404598565.40100,8,2014_Jul_05_1513,59.8313344,SSVP5_75,001,001,
21,0,21,0,None,23,0,23,0,None,1404598565.53800,8,2014_Jul_05_1513,59.8313344,SSVP5_75,001,001,
21,0,21,0,None,24,0,24,0,None,1404598565.67100,8,2014_Jul_05_1513,59.8313344,SSVP5_75,001,001,
21,0,21,0,None,25,0,25,0,None,1404598565.80100,8,2014_Jul_05_1513,59.8313344,SSVP5_75,001,001,
21,0,21,0,None,26,0,26,0,None,1404598565.93900,8,2014_Jul_05_1513,59.8313344,SSVP5_75,001,001,
21,0,21,0,None,27,0,27,0,None,1404598566.06800,8,2014_Jul_05_1513,59.8313344,SSVP5_75,001,001,
21,0,21,0,None,28,0,28,0,None,1404598566.20200,8,2014_Jul_05_1513,59.8313344,SSVP5_75,001,001,
21,0,21,0,None,29,0,29,0,None,1404598566.33900,8,2014_Jul_05_1513,59.8313344,SSVP5_75,001,001,
21,0,21,0,None,,,,,,,,2014_Jul_05_1513,59.8313344,SSVP5_75,001,001,
22,0,22,0,None,0,0,0,0,None,1404598568.49500,8,2014_Jul_05_1513,59.8313344,SSVP5_75,001,001,
22,0,22,0,None,1,0,1,0,None,1404598568.62400,8,2014_Jul_05_1513,59.8313344,SSVP5_75,001,001,
22,0,22,0,None,2,0,2,0,None,1404598568.76200,8,2014_Jul_05_1513,59.8313344,SSVP5_75,001,001,
22,0,22,0,None,3,0,3,0,None,1404598568.89500,8,2014_Jul_05_1513,59.8313344,SSVP5_75,001,001,
22,0,22,0,None,4,0,4,0,None,1404598569.02500,8,2014_Jul_05_1513,59.8313344,SSVP5_75,001,001,
22,0,22,0,None,5,0,5,0,None,1404598569.16200,8,2014_Jul_05_1513,59.8313344,SSVP5_75,001,001,
22,0,22,0,None,6,0,6,0,None,1404598569.29200,8,2014_Jul_05_1513,59.8313344,SSVP5_75,001,001,
22,0,22,0,None,7,0,7,0,None,1404598569.43000,8,2014_Jul_05_1513,59.8313344,SSVP5_75,001,001,
22,0,22,0,None,8,0,8,0,None,1404598569.56400,8,2014_Jul_05_1513,59.8313344,SSVP5_75,001,001,
22,0,22,0,None,9,0,9,0,None,1404598569.69300,8,2014_Jul_05_1513,59.8313344,SSVP5_75,001,001,
22,0,22,0,None,10,0,10,0,None,1404598569.83000,8,2014_Jul_05_1513,59.8313344,SSVP5_75,001,001,
22,0,22,0,None,11,0,11,0,None,1404598569.96400,8,2014_Jul_05_1513,59.8313344,SSVP5_75,001,001,
22,0,22,0,None,12,0,12,0,None,1404598570.09400,8,2014_Jul_05_1513,59.8313344,SSVP5_75,001,001,
22,0,22,0,None,13,0,13,0,None,1404598570.22700,8,2014_Jul_05_1513,59.8313344,SSVP5_75,001,001,
22,0,22,0,None,14,0,14,0,None,1404598570.36100,8,2014_Jul_05_1513,59.8313344,SSVP5_75,001,001,
22,0,22,0,None,15,0,15,0,None,1404598570.49800,8,2014_Jul_05_1513,59.8313344,SSVP5_75,001,001,
22,0,22,0,None,16,0,16,0,None,1404598570.62800,8,2014_Jul_05_1513,59.8313344,SSVP5_75,001,001,
22,0,22,0,None,17,0,17,0,None,1404598570.76200,8,2014_Jul_05_1513,59.8313344,SSVP5_75,001,001,
22,0,22,0,None,18,0,18,0,None,1404598570.89900,8,2014_Jul_05_1513,59.8313344,SSVP5_75,001,001,
22,0,22,0,None,19,0,19,0,None,1404598571.02900,8,2014_Jul_05_1513,59.8313344,SSVP5_75,001,001,
22,0,22,0,None,20,0,20,0,None,1404598571.16200,8,2014_Jul_05_1513,59.8313344,SSVP5_75,001,001,
22,0,22,0,None,21,0,21,0,None,1404598571.29600,8,2014_Jul_05_1513,59.8313344,SSVP5_75,001,001,
22,0,22,0,None,22,0,22,0,None,1404598571.43000,8,2014_Jul_05_1513,59.8313344,SSVP5_75,001,001,
22,0,22,0,None,23,0,23,0,None,1404598571.56700,8,2014_Jul_05_1513,59.8313344,SSVP5_75,001,001,
22,0,22,0,None,24,0,24,0,None,1404598571.69700,8,2014_Jul_05_1513,59.8313344,SSVP5_75,001,001,
22,0,22,0,None,25,0,25,0,None,1404598571.83000,8,2014_Jul_05_1513,59.8313344,SSVP5_75,001,001,
22,0,22,0,None,26,0,26,0,None,1404598571.96800,8,2014_Jul_05_1513,59.8313344,SSVP5_75,001,001,
22,0,22,0,None,27,0,27,0,None,1404598572.09800,8,2014_Jul_05_1513,59.8313344,SSVP5_75,001,001,
22,0,22,0,None,28,0,28,0,None,1404598572.23100,8,2014_Jul_05_1513,59.8313344,SSVP5_75,001,001,
22,0,22,0,None,29,0,29,0,None,1404598572.36500,8,2014_Jul_05_1513,59.8313344,SSVP5_75,001,001,
22,0,22,0,None,,,,,,,,2014_Jul_05_1513,59.8313344,SSVP5_75,001,001,
23,0,23,0,None,0,0,0,0,None,1404598574.50300,8,2014_Jul_05_1513,59.8313344,SSVP5_75,001,001,
23,0,23,0,None,1,0,1,0,None,1404598574.63600,8,2014_Jul_05_1513,59.8313344,SSVP5_75,001,001,
23,0,23,0,None,2,0,2,0,None,1404598574.76900,8,2014_Jul_05_1513,59.8313344,SSVP5_75,001,001,
23,0,23,0,None,3,0,3,0,None,1404598574.90300,8,2014_Jul_05_1513,59.8313344,SSVP5_75,001,001,
23,0,23,0,None,4,0,4,0,None,1404598575.04000,8,2014_Jul_05_1513,59.8313344,SSVP5_75,001,001,
23,0,23,0,None,5,0,5,0,None,1404598575.17000,8,2014_Jul_05_1513,59.8313344,SSVP5_75,001,001,
23,0,23,0,None,6,0,6,0,None,1404598575.30400,8,2014_Jul_05_1513,59.8313344,SSVP5_75,001,001,
23,0,23,0,None,7,0,7,0,None,1404598575.44100,8,2014_Jul_05_1513,59.8313344,SSVP5_75,001,001,
23,0,23,0,None,8,0,8,0,None,1404598575.57100,8,2014_Jul_05_1513,59.8313344,SSVP5_75,001,001,
23,0,23,0,None,9,0,9,0,None,1404598575.70800,8,2014_Jul_05_1513,59.8313344,SSVP5_75,001,001,
23,0,23,0,None,10,0,10,0,None,1404598575.84200,8,2014_Jul_05_1513,59.8313344,SSVP5_75,001,001,
23,0,23,0,None,11,0,11,0,None,1404598575.97200,8,2014_Jul_05_1513,59.8313344,SSVP5_75,001,001,
23,0,23,0,None,12,0,12,0,None,1404598576.10900,8,2014_Jul_05_1513,59.8313344,SSVP5_75,001,001,
23,0,23,0,None,13,0,13,0,None,1404598576.23900,8,2014_Jul_05_1513,59.8313344,SSVP5_75,001,001,
23,0,23,0,None,14,0,14,0,None,1404598576.37200,8,2014_Jul_05_1513,59.8313344,SSVP5_75,001,001,
23,0,23,0,None,15,0,15,0,None,1404598576.51000,8,2014_Jul_05_1513,59.8313344,SSVP5_75,001,001,
23,0,23,0,None,16,0,16,0,None,1404598576.63900,8,2014_Jul_05_1513,59.8313344,SSVP5_75,001,001,
23,0,23,0,None,17,0,17,0,None,1404598576.77700,8,2014_Jul_05_1513,59.8313344,SSVP5_75,001,001,
23,0,23,0,None,18,0,18,0,None,1404598576.90700,8,2014_Jul_05_1513,59.8313344,SSVP5_75,001,001,
23,0,23,0,None,19,0,19,0,None,1404598577.04000,8,2014_Jul_05_1513,59.8313344,SSVP5_75,001,001,
23,0,23,0,None,20,0,20,0,None,1404598577.17700,8,2014_Jul_05_1513,59.8313344,SSVP5_75,001,001,
23,0,23,0,None,21,0,21,0,None,1404598577.30700,8,2014_Jul_05_1513,59.8313344,SSVP5_75,001,001,
23,0,23,0,None,22,0,22,0,None,1404598577.44100,8,2014_Jul_05_1513,59.8313344,SSVP5_75,001,001,
23,0,23,0,None,23,0,23,0,None,1404598577.57800,8,2014_Jul_05_1513,59.8313344,SSVP5_75,001,001,
23,0,23,0,None,24,0,24,0,None,1404598577.70800,8,2014_Jul_05_1513,59.8313344,SSVP5_75,001,001,
23,0,23,0,None,25,0,25,0,None,1404598577.84600,8,2014_Jul_05_1513,59.8313344,SSVP5_75,001,001,
23,0,23,0,None,26,0,26,0,None,1404598577.97500,8,2014_Jul_05_1513,59.8313344,SSVP5_75,001,001,
23,0,23,0,None,27,0,27,0,None,1404598578.10900,8,2014_Jul_05_1513,59.8313344,SSVP5_75,001,001,
23,0,23,0,None,28,0,28,0,None,1404598578.24200,8,2014_Jul_05_1513,59.8313344,SSVP5_75,001,001,
23,0,23,0,None,29,0,29,0,None,1404598578.37600,8,2014_Jul_05_1513,59.8313344,SSVP5_75,001,001,
23,0,23,0,None,,,,,,,,2014_Jul_05_1513,59.8313344,SSVP5_75,001,001,
24,0,24,0,None,0,0,0,0,None,1404598580.51400,8,2014_Jul_05_1513,59.8313344,SSVP5_75,001,001,
24,0,24,0,None,1,0,1,0,None,1404598580.65100,8,2014_Jul_05_1513,59.8313344,SSVP5_75,001,001,
24,0,24,0,None,2,0,2,0,None,1404598580.78500,8,2014_Jul_05_1513,59.8313344,SSVP5_75,001,001,
24,0,24,0,None,3,0,3,0,None,1404598580.91800,8,2014_Jul_05_1513,59.8313344,SSVP5_75,001,001,
24,0,24,0,None,4,0,4,0,None,1404598581.04800,8,2014_Jul_05_1513,59.8313344,SSVP5_75,001,001,
24,0,24,0,None,5,0,5,0,None,1404598581.18700,8,2014_Jul_05_1513,59.8313344,SSVP5_75,001,001,
24,0,24,0,None,6,0,6,0,None,1404598581.31900,8,2014_Jul_05_1513,59.8313344,SSVP5_75,001,001,
24,0,24,0,None,7,0,7,0,None,1404598581.44800,8,2014_Jul_05_1513,59.8313344,SSVP5_75,001,001,
24,0,24,0,None,8,0,8,0,None,1404598581.58200,8,2014_Jul_05_1513,59.8313344,SSVP5_75,001,001,
24,0,24,0,None,9,0,9,0,None,1404598581.71900,8,2014_Jul_05_1513,59.8313344,SSVP5_75,001,001,
24,0,24,0,None,10,0,10,0,None,1404598581.84900,8,2014_Jul_05_1513,59.8313344,SSVP5_75,001,001,
24,0,24,0,None,11,0,11,0,None,1404598581.98700,8,2014_Jul_05_1513,59.8313344,SSVP5_75,001,001,
24,0,24,0,None,12,0,12,0,None,1404598582.11600,8,2014_Jul_05_1513,59.8313344,SSVP5_75,001,001,
24,0,24,0,None,13,0,13,0,None,1404598582.25000,8,2014_Jul_05_1513,59.8313344,SSVP5_75,001,001,
24,0,24,0,None,14,0,14,0,None,1404598582.38700,8,2014_Jul_05_1513,59.8313344,SSVP5_75,001,001,
24,0,24,0,None,15,0,15,0,None,1404598582.51700,8,2014_Jul_05_1513,59.8313344,SSVP5_75,001,001,
24,0,24,0,None,16,0,16,0,None,1404598582.65100,8,2014_Jul_05_1513,59.8313344,SSVP5_75,001,001,
24,0,24,0,None,17,0,17,0,None,1404598582.78800,8,2014_Jul_05_1513,59.8313344,SSVP5_75,001,001,
24,0,24,0,None,18,0,18,0,None,1404598582.91800,8,2014_Jul_05_1513,59.8313344,SSVP5_75,001,001,
24,0,24,0,None,19,0,19,0,None,1404598583.05500,8,2014_Jul_05_1513,59.8313344,SSVP5_75,001,001,
24,0,24,0,None,20,0,20,0,None,1404598583.18500,8,2014_Jul_05_1513,59.8313344,SSVP5_75,001,001,
24,0,24,0,None,21,0,21,0,None,1404598583.31900,8,2014_Jul_05_1513,59.8313344,SSVP5_75,001,001,
24,0,24,0,None,22,0,22,0,None,1404598583.45600,8,2014_Jul_05_1513,59.8313344,SSVP5_75,001,001,
24,0,24,0,None,23,0,23,0,None,1404598583.58600,8,2014_Jul_05_1513,59.8313344,SSVP5_75,001,001,
24,0,24,0,None,24,0,24,0,None,1404598583.72000,8,2014_Jul_05_1513,59.8313344,SSVP5_75,001,001,
24,0,24,0,None,25,0,25,0,None,1404598583.85700,8,2014_Jul_05_1513,59.8313344,SSVP5_75,001,001,
24,0,24,0,None,26,0,26,0,None,1404598583.98700,8,2014_Jul_05_1513,59.8313344,SSVP5_75,001,001,
24,0,24,0,None,27,0,27,0,None,1404598584.12500,8,2014_Jul_05_1513,59.8313344,SSVP5_75,001,001,
24,0,24,0,None,28,0,28,0,None,1404598584.33200,8,2014_Jul_05_1513,59.8313344,SSVP5_75,001,001,
24,0,24,0,None,29,0,29,0,None,1404598584.53600,8,2014_Jul_05_1513,59.8313344,SSVP5_75,001,001,
24,0,24,0,None,,,,,,,,2014_Jul_05_1513,59.8313344,SSVP5_75,001,001,
25,0,25,0,None,0,0,0,0,None,1404598587.51300,8,2014_Jul_05_1513,59.8313344,SSVP5_75,001,001,
25,0,25,0,None,1,0,1,0,None,1404598587.70500,8,2014_Jul_05_1513,59.8313344,SSVP5_75,001,001,
25,0,25,0,None,2,0,2,0,None,1404598587.88900,8,2014_Jul_05_1513,59.8313344,SSVP5_75,001,001,
25,0,25,0,None,3,0,3,0,None,1404598588.08100,8,2014_Jul_05_1513,59.8313344,SSVP5_75,001,001,
25,0,25,0,None,4,0,4,0,None,1404598588.27300,8,2014_Jul_05_1513,59.8313344,SSVP5_75,001,001,
25,0,25,0,None,5,0,5,0,None,1404598588.45600,8,2014_Jul_05_1513,59.8313344,SSVP5_75,001,001,
25,0,25,0,None,6,0,6,0,None,1404598588.64800,8,2014_Jul_05_1513,59.8313344,SSVP5_75,001,001,
25,0,25,0,None,7,0,7,0,None,1404598588.83800,8,2014_Jul_05_1513,59.8313344,SSVP5_75,001,001,
25,0,25,0,None,8,0,8,0,None,1404598589.02000,8,2014_Jul_05_1513,59.8313344,SSVP5_75,001,001,
25,0,25,0,None,9,0,9,0,None,1404598589.21000,8,2014_Jul_05_1513,59.8313344,SSVP5_75,001,001,
25,0,25,0,None,10,0,10,0,None,1404598589.39300,8,2014_Jul_05_1513,59.8313344,SSVP5_75,001,001,
25,0,25,0,None,11,0,11,0,None,1404598589.58300,8,2014_Jul_05_1513,59.8313344,SSVP5_75,001,001,
25,0,25,0,None,12,0,12,0,None,1404598589.77400,8,2014_Jul_05_1513,59.8313344,SSVP5_75,001,001,
25,0,25,0,None,13,0,13,0,None,1404598589.95400,8,2014_Jul_05_1513,59.8313344,SSVP5_75,001,001,
25,0,25,0,None,14,0,14,0,None,1404598590.14500,8,2014_Jul_05_1513,59.8313344,SSVP5_75,001,001,
25,0,25,0,None,15,0,15,0,None,1404598590.32800,8,2014_Jul_05_1513,59.8313344,SSVP5_75,001,001,
25,0,25,0,None,16,0,16,0,None,1404598590.51900,8,2014_Jul_05_1513,59.8313344,SSVP5_75,001,001,
25,0,25,0,None,17,0,17,0,None,1404598590.70900,8,2014_Jul_05_1513,59.8313344,SSVP5_75,001,001,
25,0,25,0,None,18,0,18,0,None,1404598590.89000,8,2014_Jul_05_1513,59.8313344,SSVP5_75,001,001,
25,0,25,0,None,19,0,19,0,None,1404598591.08000,8,2014_Jul_05_1513,59.8313344,SSVP5_75,001,001,
25,0,25,0,None,20,0,20,0,None,1404598591.26500,8,2014_Jul_05_1513,59.8313344,SSVP5_75,001,001,
25,0,25,0,None,21,0,21,0,None,1404598591.45400,8,2014_Jul_05_1513,59.8313344,SSVP5_75,001,001,
25,0,25,0,None,22,0,22,0,None,1404598591.64400,8,2014_Jul_05_1513,59.8313344,SSVP5_75,001,001,
25,0,25,0,None,23,0,23,0,None,1404598591.82500,8,2014_Jul_05_1513,59.8313344,SSVP5_75,001,001,
25,0,25,0,None,24,0,24,0,None,1404598592.00800,8,2014_Jul_05_1513,59.8313344,SSVP5_75,001,001,
25,0,25,0,None,25,0,25,0,None,1404598592.19200,8,2014_Jul_05_1513,59.8313344,SSVP5_75,001,001,
25,0,25,0,None,26,0,26,0,None,1404598592.38200,8,2014_Jul_05_1513,59.8313344,SSVP5_75,001,001,
25,0,25,0,None,27,0,27,0,None,1404598592.56700,8,2014_Jul_05_1513,59.8313344,SSVP5_75,001,001,
25,0,25,0,None,28,0,28,0,None,1404598592.75600,8,2014_Jul_05_1513,59.8313344,SSVP5_75,001,001,
25,0,25,0,None,29,0,29,0,None,1404598592.94600,8,2014_Jul_05_1513,59.8313344,SSVP5_75,001,001,
25,0,25,0,None,,,,,,,,2014_Jul_05_1513,59.8313344,SSVP5_75,001,001,
26,0,26,0,None,0,0,0,0,None,1404598595.86200,8,2014_Jul_05_1513,59.8313344,SSVP5_75,001,001,
26,0,26,0,None,1,0,1,0,None,1404598596.05200,8,2014_Jul_05_1513,59.8313344,SSVP5_75,001,001,
26,0,26,0,None,2,0,2,0,None,1404598596.23300,8,2014_Jul_05_1513,59.8313344,SSVP5_75,001,001,
26,0,26,0,None,3,0,3,0,None,1404598596.42300,8,2014_Jul_05_1513,59.8313344,SSVP5_75,001,001,
26,0,26,0,None,4,0,4,0,None,1404598596.60700,8,2014_Jul_05_1513,59.8313344,SSVP5_75,001,001,
26,0,26,0,None,5,0,5,0,None,1404598596.79700,8,2014_Jul_05_1513,59.8313344,SSVP5_75,001,001,
26,0,26,0,None,6,0,6,0,None,1404598596.98700,8,2014_Jul_05_1513,59.8313344,SSVP5_75,001,001,
26,0,26,0,None,7,0,7,0,None,1404598597.17300,8,2014_Jul_05_1513,59.8313344,SSVP5_75,001,001,
26,0,26,0,None,8,0,8,0,None,1404598597.36000,8,2014_Jul_05_1513,59.8313344,SSVP5_75,001,001,
26,0,26,0,None,9,0,9,0,None,1404598597.54300,8,2014_Jul_05_1513,59.8313344,SSVP5_75,001,001,
26,0,26,0,None,10,0,10,0,None,1404598597.73200,8,2014_Jul_05_1513,59.8313344,SSVP5_75,001,001,
26,0,26,0,None,11,0,11,0,None,1404598597.92200,8,2014_Jul_05_1513,59.8313344,SSVP5_75,001,001,
26,0,26,0,None,12,0,12,0,None,1404598598.10300,8,2014_Jul_05_1513,59.8313344,SSVP5_75,001,001,
26,0,26,0,None,13,0,13,0,None,1404598598.29400,8,2014_Jul_05_1513,59.8313344,SSVP5_75,001,001,
26,0,26,0,None,14,0,14,0,None,1404598598.47700,8,2014_Jul_05_1513,59.8313344,SSVP5_75,001,001,
26,0,26,0,None,15,0,15,0,None,1404598598.66700,8,2014_Jul_05_1513,59.8313344,SSVP5_75,001,001,
26,0,26,0,None,16,0,16,0,None,1404598598.85100,8,2014_Jul_05_1513,59.8313344,SSVP5_75,001,001,
26,0,26,0,None,17,0,17,0,None,1404598599.03800,8,2014_Jul_05_1513,59.8313344,SSVP5_75,001,001,
26,0,26,0,None,18,0,18,0,None,1404598599.22900,8,2014_Jul_05_1513,59.8313344,SSVP5_75,001,001,
26,0,26,0,None,19,0,19,0,None,1404598599.41200,8,2014_Jul_05_1513,59.8313344,SSVP5_75,001,001,
26,0,26,0,None,20,0,20,0,None,1404598599.60300,8,2014_Jul_05_1513,59.8313344,SSVP5_75,001,001,
26,0,26,0,None,21,0,21,0,None,1404598599.78300,8,2014_Jul_05_1513,59.8313344,SSVP5_75,001,001,
26,0,26,0,None,22,0,22,0,None,1404598599.97200,8,2014_Jul_05_1513,59.8313344,SSVP5_75,001,001,
26,0,26,0,None,23,0,23,0,None,1404598600.15500,8,2014_Jul_05_1513,59.8313344,SSVP5_75,001,001,
26,0,26,0,None,24,0,24,0,None,1404598600.34100,8,2014_Jul_05_1513,59.8313344,SSVP5_75,001,001,
26,0,26,0,None,25,0,25,0,None,1404598600.53100,8,2014_Jul_05_1513,59.8313344,SSVP5_75,001,001,
26,0,26,0,None,26,0,26,0,None,1404598600.71300,8,2014_Jul_05_1513,59.8313344,SSVP5_75,001,001,
26,0,26,0,None,27,0,27,0,None,1404598600.89900,8,2014_Jul_05_1513,59.8313344,SSVP5_75,001,001,
26,0,26,0,None,28,0,28,0,None,1404598601.08400,8,2014_Jul_05_1513,59.8313344,SSVP5_75,001,001,
26,0,26,0,None,29,0,29,0,None,1404598601.27200,8,2014_Jul_05_1513,59.8313344,SSVP5_75,001,001,
26,0,26,0,None,,,,,,,,2014_Jul_05_1513,59.8313344,SSVP5_75,001,001,
27,0,27,0,None,0,0,0,0,None,1404598604.20200,8,2014_Jul_05_1513,59.8313344,SSVP5_75,001,001,
27,0,27,0,None,1,0,1,0,None,1404598604.38300,8,2014_Jul_05_1513,59.8313344,SSVP5_75,001,001,
27,0,27,0,None,2,0,2,0,None,1404598604.57300,8,2014_Jul_05_1513,59.8313344,SSVP5_75,001,001,
27,0,27,0,None,3,0,3,0,None,1404598604.75700,8,2014_Jul_05_1513,59.8313344,SSVP5_75,001,001,
27,0,27,0,None,4,0,4,0,None,1404598604.94700,8,2014_Jul_05_1513,59.8313344,SSVP5_75,001,001,
27,0,27,0,None,5,0,5,0,None,1404598605.13700,8,2014_Jul_05_1513,59.8313344,SSVP5_75,001,001,
27,0,27,0,None,6,0,6,0,None,1404598605.31800,8,2014_Jul_05_1513,59.8313344,SSVP5_75,001,001,
27,0,27,0,None,7,0,7,0,None,1404598605.50700,8,2014_Jul_05_1513,59.8313344,SSVP5_75,001,001,
27,0,27,0,None,8,0,8,0,None,1404598605.69000,8,2014_Jul_05_1513,59.8313344,SSVP5_75,001,001,
27,0,27,0,None,9,0,9,0,None,1404598605.87700,8,2014_Jul_05_1513,59.8313344,SSVP5_75,001,001,
27,0,27,0,None,10,0,10,0,None,1404598606.06100,8,2014_Jul_05_1513,59.8313344,SSVP5_75,001,001,
27,0,27,0,None,11,0,11,0,None,1404598606.24900,8,2014_Jul_05_1513,59.8313344,SSVP5_75,001,001,
27,0,27,0,None,12,0,12,0,None,1404598606.42900,8,2014_Jul_05_1513,59.8313344,SSVP5_75,001,001,
27,0,27,0,None,13,0,13,0,None,1404598606.61900,8,2014_Jul_05_1513,59.8313344,SSVP5_75,001,001,
27,0,27,0,None,14,0,14,0,None,1404598606.81000,8,2014_Jul_05_1513,59.8313344,SSVP5_75,001,001,
27,0,27,0,None,15,0,15,0,None,1404598606.99200,8,2014_Jul_05_1513,59.8313344,SSVP5_75,001,001,
27,0,27,0,None,16,0,16,0,None,1404598607.18000,8,2014_Jul_05_1513,59.8313344,SSVP5_75,001,001,
27,0,27,0,None,17,0,17,0,None,1404598607.36300,8,2014_Jul_05_1513,59.8313344,SSVP5_75,001,001,
27,0,27,0,None,18,0,18,0,None,1404598607.55100,8,2014_Jul_05_1513,59.8313344,SSVP5_75,001,001,
27,0,27,0,None,19,0,19,0,None,1404598607.73200,8,2014_Jul_05_1513,59.8313344,SSVP5_75,001,001,
27,0,27,0,None,20,0,20,0,None,1404598607.92100,8,2014_Jul_05_1513,59.8313344,SSVP5_75,001,001,
27,0,27,0,None,21,0,21,0,None,1404598608.11100,8,2014_Jul_05_1513,59.8313344,SSVP5_75,001,001,
27,0,27,0,None,22,0,22,0,None,1404598608.29500,8,2014_Jul_05_1513,59.8313344,SSVP5_75,001,001,
27,0,27,0,None,23,0,23,0,None,1404598608.48200,8,2014_Jul_05_1513,59.8313344,SSVP5_75,001,001,
27,0,27,0,None,24,0,24,0,None,1404598608.66600,8,2014_Jul_05_1513,59.8313344,SSVP5_75,001,001,
27,0,27,0,None,25,0,25,0,None,1404598608.85400,8,2014_Jul_05_1513,59.8313344,SSVP5_75,001,001,
27,0,27,0,None,26,0,26,0,None,1404598609.04400,8,2014_Jul_05_1513,59.8313344,SSVP5_75,001,001,
27,0,27,0,None,27,0,27,0,None,1404598609.22500,8,2014_Jul_05_1513,59.8313344,SSVP5_75,001,001,
27,0,27,0,None,28,0,28,0,None,1404598609.41500,8,2014_Jul_05_1513,59.8313344,SSVP5_75,001,001,
27,0,27,0,None,29,0,29,0,None,1404598609.59900,8,2014_Jul_05_1513,59.8313344,SSVP5_75,001,001,
27,0,27,0,None,,,,,,,,2014_Jul_05_1513,59.8313344,SSVP5_75,001,001,
28,0,28,0,None,0,0,0,0,None,1404598612.51400,8,2014_Jul_05_1513,59.8313344,SSVP5_75,001,001,
28,0,28,0,None,1,0,1,0,None,1404598612.69800,8,2014_Jul_05_1513,59.8313344,SSVP5_75,001,001,
28,0,28,0,None,2,0,2,0,None,1404598612.88900,8,2014_Jul_05_1513,59.8313344,SSVP5_75,001,001,
28,0,28,0,None,3,0,3,0,None,1404598613.07100,8,2014_Jul_05_1513,59.8313344,SSVP5_75,001,001,
28,0,28,0,None,4,0,4,0,None,1404598613.25800,8,2014_Jul_05_1513,59.8313344,SSVP5_75,001,001,
28,0,28,0,None,5,0,5,0,None,1404598613.44000,8,2014_Jul_05_1513,59.8313344,SSVP5_75,001,001,
28,0,28,0,None,6,0,6,0,None,1404598613.63000,8,2014_Jul_05_1513,59.8313344,SSVP5_75,001,001,
28,0,28,0,None,7,0,7,0,None,1404598613.82000,8,2014_Jul_05_1513,59.8313344,SSVP5_75,001,001,
28,0,28,0,None,8,0,8,0,None,1404598614.00100,8,2014_Jul_05_1513,59.8313344,SSVP5_75,001,001,
28,0,28,0,None,9,0,9,0,None,1404598614.18900,8,2014_Jul_05_1513,59.8313344,SSVP5_75,001,001,
28,0,28,0,None,10,0,10,0,None,1404598614.37300,8,2014_Jul_05_1513,59.8313344,SSVP5_75,001,001,
28,0,28,0,None,11,0,11,0,None,1404598614.56100,8,2014_Jul_05_1513,59.8313344,SSVP5_75,001,001,
28,0,28,0,None,12,0,12,0,None,1404598614.74400,8,2014_Jul_05_1513,59.8313344,SSVP5_75,001,001,
28,0,28,0,None,13,0,13,0,None,1404598614.93200,8,2014_Jul_05_1513,59.8313344,SSVP5_75,001,001,
28,0,28,0,None,14,0,14,0,None,1404598615.12200,8,2014_Jul_05_1513,59.8313344,SSVP5_75,001,001,
28,0,28,0,None,15,0,15,0,None,1404598615.30800,8,2014_Jul_05_1513,59.8313344,SSVP5_75,001,001,
28,0,28,0,None,16,0,16,0,None,1404598615.49600,8,2014_Jul_05_1513,59.8313344,SSVP5_75,001,001,
28,0,28,0,None,17,0,17,0,None,1404598615.67900,8,2014_Jul_05_1513,59.8313344,SSVP5_75,001,001,
28,0,28,0,None,18,0,18,0,None,1404598615.86700,8,2014_Jul_05_1513,59.8313344,SSVP5_75,001,001,
28,0,28,0,None,19,0,19,0,None,1404598616.05200,8,2014_Jul_05_1513,59.8313344,SSVP5_75,001,001,
28,0,28,0,None,20,0,20,0,None,1404598616.23800,8,2014_Jul_05_1513,59.8313344,SSVP5_75,001,001,
28,0,28,0,None,21,0,21,0,None,1404598616.42900,8,2014_Jul_05_1513,59.8313344,SSVP5_75,001,001,
28,0,28,0,None,22,0,22,0,None,1404598616.61300,8,2014_Jul_05_1513,59.8313344,SSVP5_75,001,001,
28,0,28,0,None,23,0,23,0,None,1404598616.80200,8,2014_Jul_05_1513,59.8313344,SSVP5_75,001,001,
28,0,28,0,None,24,0,24,0,None,1404598616.99300,8,2014_Jul_05_1513,59.8313344,SSVP5_75,001,001,
28,0,28,0,None,25,0,25,0,None,1404598617.17400,8,2014_Jul_05_1513,59.8313344,SSVP5_75,001,001,
28,0,28,0,None,26,0,26,0,None,1404598617.35700,8,2014_Jul_05_1513,59.8313344,SSVP5_75,001,001,
28,0,28,0,None,27,0,27,0,None,1404598617.54100,8,2014_Jul_05_1513,59.8313344,SSVP5_75,001,001,
28,0,28,0,None,28,0,28,0,None,1404598617.72300,8,2014_Jul_05_1513,59.8313344,SSVP5_75,001,001,
28,0,28,0,None,29,0,29,0,None,1404598617.90800,8,2014_Jul_05_1513,59.8313344,SSVP5_75,001,001,
28,0,28,0,None,,,,,,,,2014_Jul_05_1513,59.8313344,SSVP5_75,001,001,
29,0,29,0,None,0,0,0,0,None,1404598620.82300,8,2014_Jul_05_1513,59.8313344,SSVP5_75,001,001,
29,0,29,0,None,1,0,1,0,None,1404598621.01300,8,2014_Jul_05_1513,59.8313344,SSVP5_75,001,001,
29,0,29,0,None,2,0,2,0,None,1404598621.19700,8,2014_Jul_05_1513,59.8313344,SSVP5_75,001,001,
29,0,29,0,None,3,0,3,0,None,1404598621.38200,8,2014_Jul_05_1513,59.8313344,SSVP5_75,001,001,
29,0,29,0,None,4,0,4,0,None,1404598621.57300,8,2014_Jul_05_1513,59.8313344,SSVP5_75,001,001,
29,0,29,0,None,5,0,5,0,None,1404598621.75800,8,2014_Jul_05_1513,59.8313344,SSVP5_75,001,001,
29,0,29,0,None,6,0,6,0,None,1404598621.94700,8,2014_Jul_05_1513,59.8313344,SSVP5_75,001,001,
29,0,29,0,None,7,0,7,0,None,1404598622.13700,8,2014_Jul_05_1513,59.8313344,SSVP5_75,001,001,
29,0,29,0,None,8,0,8,0,None,1404598622.31800,8,2014_Jul_05_1513,59.8313344,SSVP5_75,001,001,
29,0,29,0,None,9,0,9,0,None,1404598622.50800,8,2014_Jul_05_1513,59.8313344,SSVP5_75,001,001,
29,0,29,0,None,10,0,10,0,None,1404598622.69400,8,2014_Jul_05_1513,59.8313344,SSVP5_75,001,001,
29,0,29,0,None,11,0,11,0,None,1404598622.88100,8,2014_Jul_05_1513,59.8313344,SSVP5_75,001,001,
29,0,29,0,None,12,0,12,0,None,1404598623.06200,8,2014_Jul_05_1513,59.8313344,SSVP5_75,001,001,
29,0,29,0,None,13,0,13,0,None,1404598623.25000,8,2014_Jul_05_1513,59.8313344,SSVP5_75,001,001,
29,0,29,0,None,14,0,14,0,None,1404598623.44100,8,2014_Jul_05_1513,59.8313344,SSVP5_75,001,001,
29,0,29,0,None,15,0,15,0,None,1404598623.62500,8,2014_Jul_05_1513,59.8313344,SSVP5_75,001,001,
29,0,29,0,None,16,0,16,0,None,1404598623.81200,8,2014_Jul_05_1513,59.8313344,SSVP5_75,001,001,
29,0,29,0,None,17,0,17,0,None,1404598623.99600,8,2014_Jul_05_1513,59.8313344,SSVP5_75,001,001,
29,0,29,0,None,18,0,18,0,None,1404598624.18400,8,2014_Jul_05_1513,59.8313344,SSVP5_75,001,001,
29,0,29,0,None,19,0,19,0,None,1404598624.36400,8,2014_Jul_05_1513,59.8313344,SSVP5_75,001,001,
29,0,29,0,None,20,0,20,0,None,1404598624.55300,8,2014_Jul_05_1513,59.8313344,SSVP5_75,001,001,
29,0,29,0,None,21,0,21,0,None,1404598624.74400,8,2014_Jul_05_1513,59.8313344,SSVP5_75,001,001,
29,0,29,0,None,22,0,22,0,None,1404598624.92700,8,2014_Jul_05_1513,59.8313344,SSVP5_75,001,001,
29,0,29,0,None,23,0,23,0,None,1404598625.11400,8,2014_Jul_05_1513,59.8313344,SSVP5_75,001,001,
29,0,29,0,None,24,0,24,0,None,1404598625.29800,8,2014_Jul_05_1513,59.8313344,SSVP5_75,001,001,
29,0,29,0,None,25,0,25,0,None,1404598625.48700,8,2014_Jul_05_1513,59.8313344,SSVP5_75,001,001,
29,0,29,0,None,26,0,26,0,None,1404598625.67700,8,2014_Jul_05_1513,59.8313344,SSVP5_75,001,001,
29,0,29,0,None,27,0,27,0,None,1404598625.85800,8,2014_Jul_05_1513,59.8313344,SSVP5_75,001,001,
29,0,29,0,None,28,0,28,0,None,1404598626.04800,8,2014_Jul_05_1513,59.8313344,SSVP5_75,001,001,
29,0,29,0,None,29,0,29,0,None,1404598626.23400,8,2014_Jul_05_1513,59.8313344,SSVP5_75,001,001,
29,0,29,0,None,,,,,,,,2014_Jul_05_1513,59.8313344,SSVP5_75,001,001,
30,0,30,0,None,0,0,0,0,None,1404598629.15200,8,2014_Jul_05_1513,59.8313344,SSVP5_75,001,001,
30,0,30,0,None,1,0,1,0,None,1404598629.33600,8,2014_Jul_05_1513,59.8313344,SSVP5_75,001,001,
30,0,30,0,None,2,0,2,0,None,1404598629.52300,8,2014_Jul_05_1513,59.8313344,SSVP5_75,001,001,
30,0,30,0,None,3,0,3,0,None,1404598629.70600,8,2014_Jul_05_1513,59.8313344,SSVP5_75,001,001,
30,0,30,0,None,4,0,4,0,None,1404598629.89700,8,2014_Jul_05_1513,59.8313344,SSVP5_75,001,001,
30,0,30,0,None,5,0,5,0,None,1404598630.08900,8,2014_Jul_05_1513,59.8313344,SSVP5_75,001,001,
30,0,30,0,None,6,0,6,0,None,1404598630.27500,8,2014_Jul_05_1513,59.8313344,SSVP5_75,001,001,
30,0,30,0,None,7,0,7,0,None,1404598630.46300,8,2014_Jul_05_1513,59.8313344,SSVP5_75,001,001,
30,0,30,0,None,8,0,8,0,None,1404598630.65300,8,2014_Jul_05_1513,59.8313344,SSVP5_75,001,001,
30,0,30,0,None,9,0,9,0,None,1404598630.83400,8,2014_Jul_05_1513,59.8313344,SSVP5_75,001,001,
30,0,30,0,None,10,0,10,0,None,1404598631.01700,8,2014_Jul_05_1513,59.8313344,SSVP5_75,001,001,
30,0,30,0,None,11,0,11,0,None,1404598631.20100,8,2014_Jul_05_1513,59.8313344,SSVP5_75,001,001,
30,0,30,0,None,12,0,12,0,None,1404598631.39200,8,2014_Jul_05_1513,59.8313344,SSVP5_75,001,001,
30,0,30,0,None,13,0,13,0,None,1404598631.57700,8,2014_Jul_05_1513,59.8313344,SSVP5_75,001,001,
30,0,30,0,None,14,0,14,0,None,1404598631.76500,8,2014_Jul_05_1513,59.8313344,SSVP5_75,001,001,
30,0,30,0,None,15,0,15,0,None,1404598631.95500,8,2014_Jul_05_1513,59.8313344,SSVP5_75,001,001,
30,0,30,0,None,16,0,16,0,None,1404598632.13600,8,2014_Jul_05_1513,59.8313344,SSVP5_75,001,001,
30,0,30,0,None,17,0,17,0,None,1404598632.32700,8,2014_Jul_05_1513,59.8313344,SSVP5_75,001,001,
30,0,30,0,None,18,0,18,0,None,1404598632.51000,8,2014_Jul_05_1513,59.8313344,SSVP5_75,001,001,
30,0,30,0,None,19,0,19,0,None,1404598632.70100,8,2014_Jul_05_1513,59.8313344,SSVP5_75,001,001,
30,0,30,0,None,20,0,20,0,None,1404598632.89100,8,2014_Jul_05_1513,59.8313344,SSVP5_75,001,001,
30,0,30,0,None,21,0,21,0,None,1404598633.07100,8,2014_Jul_05_1513,59.8313344,SSVP5_75,001,001,
30,0,30,0,None,22,0,22,0,None,1404598633.26100,8,2014_Jul_05_1513,59.8313344,SSVP5_75,001,001,
30,0,30,0,None,23,0,23,0,None,1404598633.44400,8,2014_Jul_05_1513,59.8313344,SSVP5_75,001,001,
30,0,30,0,None,24,0,24,0,None,1404598633.63100,8,2014_Jul_05_1513,59.8313344,SSVP5_75,001,001,
30,0,30,0,None,25,0,25,0,None,1404598633.81400,8,2014_Jul_05_1513,59.8313344,SSVP5_75,001,001,
30,0,30,0,None,26,0,26,0,None,1404598634.00300,8,2014_Jul_05_1513,59.8313344,SSVP5_75,001,001,
30,0,30,0,None,27,0,27,0,None,1404598634.18900,8,2014_Jul_05_1513,59.8313344,SSVP5_75,001,001,
30,0,30,0,None,28,0,28,0,None,1404598634.37400,8,2014_Jul_05_1513,59.8313344,SSVP5_75,001,001,
30,0,30,0,None,29,0,29,0,None,1404598634.56400,8,2014_Jul_05_1513,59.8313344,SSVP5_75,001,001,
30,0,30,0,None,,,,,,,,2014_Jul_05_1513,59.8313344,SSVP5_75,001,001,
31,0,31,0,None,0,0,0,0,None,1404598637.47800,8,2014_Jul_05_1513,59.8313344,SSVP5_75,001,001,
31,0,31,0,None,1,0,1,0,None,1404598637.67000,8,2014_Jul_05_1513,59.8313344,SSVP5_75,001,001,
31,0,31,0,None,2,0,2,0,None,1404598637.85300,8,2014_Jul_05_1513,59.8313344,SSVP5_75,001,001,
31,0,31,0,None,3,0,3,0,None,1404598638.04400,8,2014_Jul_05_1513,59.8313344,SSVP5_75,001,001,
31,0,31,0,None,4,0,4,0,None,1404598638.23400,8,2014_Jul_05_1513,59.8313344,SSVP5_75,001,001,
31,0,31,0,None,5,0,5,0,None,1404598638.41600,8,2014_Jul_05_1513,59.8313344,SSVP5_75,001,001,
31,0,31,0,None,6,0,6,0,None,1404598638.60500,8,2014_Jul_05_1513,59.8313344,SSVP5_75,001,001,
31,0,31,0,None,7,0,7,0,None,1404598638.78800,8,2014_Jul_05_1513,59.8313344,SSVP5_75,001,001,
31,0,31,0,None,8,0,8,0,None,1404598638.97500,8,2014_Jul_05_1513,59.8313344,SSVP5_75,001,001,
31,0,31,0,None,9,0,9,0,None,1404598639.15800,8,2014_Jul_05_1513,59.8313344,SSVP5_75,001,001,
31,0,31,0,None,10,0,10,0,None,1404598639.34700,8,2014_Jul_05_1513,59.8313344,SSVP5_75,001,001,
31,0,31,0,None,11,0,11,0,None,1404598639.53800,8,2014_Jul_05_1513,59.8313344,SSVP5_75,001,001,
31,0,31,0,None,12,0,12,0,None,1404598639.71800,8,2014_Jul_05_1513,59.8313344,SSVP5_75,001,001,
31,0,31,0,None,13,0,13,0,None,1404598639.90800,8,2014_Jul_05_1513,59.8313344,SSVP5_75,001,001,
31,0,31,0,None,14,0,14,0,None,1404598640.09200,8,2014_Jul_05_1513,59.8313344,SSVP5_75,001,001,
31,0,31,0,None,15,0,15,0,None,1404598640.28200,8,2014_Jul_05_1513,59.8313344,SSVP5_75,001,001,
31,0,31,0,None,16,0,16,0,None,1404598640.47300,8,2014_Jul_05_1513,59.8313344,SSVP5_75,001,001,
31,0,31,0,None,17,0,17,0,None,1404598640.65300,8,2014_Jul_05_1513,59.8313344,SSVP5_75,001,001,
31,0,31,0,None,18,0,18,0,None,1404598640.84400,8,2014_Jul_05_1513,59.8313344,SSVP5_75,001,001,
31,0,31,0,None,19,0,19,0,None,1404598641.03000,8,2014_Jul_05_1513,59.8313344,SSVP5_75,001,001,
31,0,31,0,None,20,0,20,0,None,1404598641.21700,8,2014_Jul_05_1513,59.8313344,SSVP5_75,001,001,
31,0,31,0,None,21,0,21,0,None,1404598641.40800,8,2014_Jul_05_1513,59.8313344,SSVP5_75,001,001,
31,0,31,0,None,22,0,22,0,None,1404598641.59300,8,2014_Jul_05_1513,59.8313344,SSVP5_75,001,001,
31,0,31,0,None,23,0,23,0,None,1404598641.78000,8,2014_Jul_05_1513,59.8313344,SSVP5_75,001,001,
31,0,31,0,None,24,0,24,0,None,1404598641.96400,8,2014_Jul_05_1513,59.8313344,SSVP5_75,001,001,
31,0,31,0,None,25,0,25,0,None,1404598642.15300,8,2014_Jul_05_1513,59.8313344,SSVP5_75,001,001,
31,0,31,0,None,26,0,26,0,None,1404598642.33300,8,2014_Jul_05_1513,59.8313344,SSVP5_75,001,001,
31,0,31,0,None,27,0,27,0,None,1404598642.52200,8,2014_Jul_05_1513,59.8313344,SSVP5_75,001,001,
31,0,31,0,None,28,0,28,0,None,1404598642.71400,8,2014_Jul_05_1513,59.8313344,SSVP5_75,001,001,
31,0,31,0,None,29,0,29,0,None,1404598642.89700,8,2014_Jul_05_1513,59.8313344,SSVP5_75,001,001,
31,0,31,0,None,,,,,,,,2014_Jul_05_1513,59.8313344,SSVP5_75,001,001,
32,0,32,0,None,0,0,0,0,None,1404598645.80500,8,2014_Jul_05_1513,59.8313344,SSVP5_75,001,001,
32,0,32,0,None,1,0,1,0,None,1404598645.99400,8,2014_Jul_05_1513,59.8313344,SSVP5_75,001,001,
32,0,32,0,None,2,0,2,0,None,1404598646.18500,8,2014_Jul_05_1513,59.8313344,SSVP5_75,001,001,
32,0,32,0,None,3,0,3,0,None,1404598646.36900,8,2014_Jul_05_1513,59.8313344,SSVP5_75,001,001,
32,0,32,0,None,4,0,4,0,None,1404598646.55600,8,2014_Jul_05_1513,59.8313344,SSVP5_75,001,001,
32,0,32,0,None,5,0,5,0,None,1404598646.74100,8,2014_Jul_05_1513,59.8313344,SSVP5_75,001,001,
32,0,32,0,None,6,0,6,0,None,1404598646.92900,8,2014_Jul_05_1513,59.8313344,SSVP5_75,001,001,
32,0,32,0,None,7,0,7,0,None,1404598647.11800,8,2014_Jul_05_1513,59.8313344,SSVP5_75,001,001,
32,0,32,0,None,8,0,8,0,None,1404598647.29900,8,2014_Jul_05_1513,59.8313344,SSVP5_75,001,001,
32,0,32,0,None,9,0,9,0,None,1404598647.48900,8,2014_Jul_05_1513,59.8313344,SSVP5_75,001,001,
32,0,32,0,None,10,0,10,0,None,1404598647.67300,8,2014_Jul_05_1513,59.8313344,SSVP5_75,001,001,
32,0,32,0,None,11,0,11,0,None,1404598647.86400,8,2014_Jul_05_1513,59.8313344,SSVP5_75,001,001,
32,0,32,0,None,12,0,12,0,None,1404598648.05400,8,2014_Jul_05_1513,59.8313344,SSVP5_75,001,001,
32,0,32,0,None,13,0,13,0,None,1404598648.23900,8,2014_Jul_05_1513,59.8313344,SSVP5_75,001,001,
32,0,32,0,None,14,0,14,0,None,1404598648.42700,8,2014_Jul_05_1513,59.8313344,SSVP5_75,001,001,
32,0,32,0,None,15,0,15,0,None,1404598648.61100,8,2014_Jul_05_1513,59.8313344,SSVP5_75,001,001,
32,0,32,0,None,16,0,16,0,None,1404598648.79800,8,2014_Jul_05_1513,59.8313344,SSVP5_75,001,001,
32,0,32,0,None,17,0,17,0,None,1404598648.98900,8,2014_Jul_05_1513,59.8313344,SSVP5_75,001,001,
32,0,32,0,None,18,0,18,0,None,1404598649.17000,8,2014_Jul_05_1513,59.8313344,SSVP5_75,001,001,
32,0,32,0,None,19,0,19,0,None,1404598649.35900,8,2014_Jul_05_1513,59.8313344,SSVP5_75,001,001,
32,0,32,0,None,20,0,20,0,None,1404598649.54200,8,2014_Jul_05_1513,59.8313344,SSVP5_75,001,001,
32,0,32,0,None,21,0,21,0,None,1404598649.72900,8,2014_Jul_05_1513,59.8313344,SSVP5_75,001,001,
32,0,32,0,None,22,0,22,0,None,1404598649.91300,8,2014_Jul_05_1513,59.8313344,SSVP5_75,001,001,
32,0,32,0,None,23,0,23,0,None,1404598650.10300,8,2014_Jul_05_1513,59.8313344,SSVP5_75,001,001,
32,0,32,0,None,24,0,24,0,None,1404598650.29400,8,2014_Jul_05_1513,59.8313344,SSVP5_75,001,001,
32,0,32,0,None,25,0,25,0,None,1404598650.47900,8,2014_Jul_05_1513,59.8313344,SSVP5_75,001,001,
32,0,32,0,None,26,0,26,0,None,1404598650.66900,8,2014_Jul_05_1513,59.8313344,SSVP5_75,001,001,
32,0,32,0,None,27,0,27,0,None,1404598650.85300,8,2014_Jul_05_1513,59.8313344,SSVP5_75,001,001,
32,0,32,0,None,28,0,28,0,None,1404598651.03900,8,2014_Jul_05_1513,59.8313344,SSVP5_75,001,001,
32,0,32,0,None,29,0,29,0,None,1404598651.23000,8,2014_Jul_05_1513,59.8313344,SSVP5_75,001,001,
32,0,32,0,None,,,,,,,,2014_Jul_05_1513,59.8313344,SSVP5_75,001,001,
33,0,33,0,None,0,0,0,0,None,1404598654.15400,8,2014_Jul_05_1513,59.8313344,SSVP5_75,001,001,
33,0,33,0,None,1,0,1,0,None,1404598654.34200,8,2014_Jul_05_1513,59.8313344,SSVP5_75,001,001,
33,0,33,0,None,2,0,2,0,None,1404598654.53300,8,2014_Jul_05_1513,59.8313344,SSVP5_75,001,001,
33,0,33,0,None,3,0,3,0,None,1404598654.71300,8,2014_Jul_05_1513,59.8313344,SSVP5_75,001,001,
33,0,33,0,None,4,0,4,0,None,1404598654.90400,8,2014_Jul_05_1513,59.8313344,SSVP5_75,001,001,
33,0,33,0,None,5,0,5,0,None,1404598655.08900,8,2014_Jul_05_1513,59.8313344,SSVP5_75,001,001,
33,0,33,0,None,6,0,6,0,None,1404598655.27800,8,2014_Jul_05_1513,59.8313344,SSVP5_75,001,001,
33,0,33,0,None,7,0,7,0,None,1404598655.46100,8,2014_Jul_05_1513,59.8313344,SSVP5_75,001,001,
33,0,33,0,None,8,0,8,0,None,1404598655.64700,8,2014_Jul_05_1513,59.8313344,SSVP5_75,001,001,
33,0,33,0,None,9,0,9,0,None,1404598655.83900,8,2014_Jul_05_1513,59.8313344,SSVP5_75,001,001,
33,0,33,0,None,10,0,10,0,None,1404598656.02200,8,2014_Jul_05_1513,59.8313344,SSVP5_75,001,001,
33,0,33,0,None,11,0,11,0,None,1404598656.21300,8,2014_Jul_05_1513,59.8313344,SSVP5_75,001,001,
33,0,33,0,None,12,0,12,0,None,1404598656.40400,8,2014_Jul_05_1513,59.8313344,SSVP5_75,001,001,
33,0,33,0,None,13,0,13,0,None,1404598656.58400,8,2014_Jul_05_1513,59.8313344,SSVP5_75,001,001,
33,0,33,0,None,14,0,14,0,None,1404598656.77500,8,2014_Jul_05_1513,59.8313344,SSVP5_75,001,001,
33,0,33,0,None,15,0,15,0,None,1404598656.95800,8,2014_Jul_05_1513,59.8313344,SSVP5_75,001,001,
33,0,33,0,None,16,0,16,0,None,1404598657.14900,8,2014_Jul_05_1513,59.8313344,SSVP5_75,001,001,
33,0,33,0,None,17,0,17,0,None,1404598657.33900,8,2014_Jul_05_1513,59.8313344,SSVP5_75,001,001,
33,0,33,0,None,18,0,18,0,None,1404598657.52000,8,2014_Jul_05_1513,59.8313344,SSVP5_75,001,001,
33,0,33,0,None,19,0,19,0,None,1404598657.71000,8,2014_Jul_05_1513,59.8313344,SSVP5_75,001,001,
33,0,33,0,None,20,0,20,0,None,1404598657.89400,8,2014_Jul_05_1513,59.8313344,SSVP5_75,001,001,
33,0,33,0,None,21,0,21,0,None,1404598658.08400,8,2014_Jul_05_1513,59.8313344,SSVP5_75,001,001,
33,0,33,0,None,22,0,22,0,None,1404598658.27400,8,2014_Jul_05_1513,59.8313344,SSVP5_75,001,001,
33,0,33,0,None,23,0,23,0,None,1404598658.45500,8,2014_Jul_05_1513,59.8313344,SSVP5_75,001,001,
33,0,33,0,None,24,0,24,0,None,1404598658.64500,8,2014_Jul_05_1513,59.8313344,SSVP5_75,001,001,
33,0,33,0,None,25,0,25,0,None,1404598658.82900,8,2014_Jul_05_1513,59.8313344,SSVP5_75,001,001,
33,0,33,0,None,26,0,26,0,None,1404598659.01900,8,2014_Jul_05_1513,59.8313344,SSVP5_75,001,001,
33,0,33,0,None,27,0,27,0,None,1404598659.20900,8,2014_Jul_05_1513,59.8313344,SSVP5_75,001,001,
33,0,33,0,None,28,0,28,0,None,1404598659.39000,8,2014_Jul_05_1513,59.8313344,SSVP5_75,001,001,
33,0,33,0,None,29,0,29,0,None,1404598659.58100,8,2014_Jul_05_1513,59.8313344,SSVP5_75,001,001,
33,0,33,0,None,,,,,,,,2014_Jul_05_1513,59.8313344,SSVP5_75,001,001,
34,0,34,0,None,0,0,0,0,None,1404598662.49400,8,2014_Jul_05_1513,59.8313344,SSVP5_75,001,001,
34,0,34,0,None,1,0,1,0,None,1404598662.68600,8,2014_Jul_05_1513,59.8313344,SSVP5_75,001,001,
34,0,34,0,None,2,0,2,0,None,1404598662.87100,8,2014_Jul_05_1513,59.8313344,SSVP5_75,001,001,
34,0,34,0,None,3,0,3,0,None,1404598663.06000,8,2014_Jul_05_1513,59.8313344,SSVP5_75,001,001,
34,0,34,0,None,4,0,4,0,None,1404598663.25000,8,2014_Jul_05_1513,59.8313344,SSVP5_75,001,001,
34,0,34,0,None,5,0,5,0,None,1404598663.43100,8,2014_Jul_05_1513,59.8313344,SSVP5_75,001,001,
34,0,34,0,None,6,0,6,0,None,1404598663.62100,8,2014_Jul_05_1513,59.8313344,SSVP5_75,001,001,
34,0,34,0,None,7,0,7,0,None,1404598663.80700,8,2014_Jul_05_1513,59.8313344,SSVP5_75,001,001,
34,0,34,0,None,8,0,8,0,None,1404598663.99600,8,2014_Jul_05_1513,59.8313344,SSVP5_75,001,001,
34,0,34,0,None,9,0,9,0,None,1404598664.18700,8,2014_Jul_05_1513,59.8313344,SSVP5_75,001,001,
34,0,34,0,None,10,0,10,0,None,1404598664.37100,8,2014_Jul_05_1513,59.8313344,SSVP5_75,001,001,
34,0,34,0,None,11,0,11,0,None,1404598664.55800,8,2014_Jul_05_1513,59.8313344,SSVP5_75,001,001,
34,0,34,0,None,12,0,12,0,None,1404598664.74200,8,2014_Jul_05_1513,59.8313344,SSVP5_75,001,001,
34,0,34,0,None,13,0,13,0,None,1404598664.93000,8,2014_Jul_05_1513,59.8313344,SSVP5_75,001,001,
34,0,34,0,None,14,0,14,0,None,1404598665.12000,8,2014_Jul_05_1513,59.8313344,SSVP5_75,001,001,
34,0,34,0,None,15,0,15,0,None,1404598665.30100,8,2014_Jul_05_1513,59.8313344,SSVP5_75,001,001,
34,0,34,0,None,16,0,16,0,None,1404598665.49000,8,2014_Jul_05_1513,59.8313344,SSVP5_75,001,001,
34,0,34,0,None,17,0,17,0,None,1404598665.67300,8,2014_Jul_05_1513,59.8313344,SSVP5_75,001,001,
