trials_120.thisRepN,trials_120.thisTrialN,trials_120.thisN,trials_120.thisIndex,withinATrial_fill_4_sec.thisRepN,withinATrial_fill_4_sec.thisTrialN,withinATrial_fill_4_sec.thisN,withinATrial_fill_4_sec.thisIndex,FrameTimeStamps,frameNumber,date,frameRate,expName,session,participant,
0,0,0,0,0,0,0,0,1404854480.14200,8,2014_Jul_08_1421,59.9365043328,SSVP5_75,001,bill,
0,0,0,0,1,0,1,0,1404854480.27400,8,2014_Jul_08_1421,59.9365043328,SSVP5_75,001,bill,
0,0,0,0,2,0,2,0,1404854480.41000,8,2014_Jul_08_1421,59.9365043328,SSVP5_75,001,bill,
0,0,0,0,3,0,3,0,1404854480.54400,8,2014_Jul_08_1421,59.9365043328,SSVP5_75,001,bill,
0,0,0,0,4,0,4,0,1404854480.67800,8,2014_Jul_08_1421,59.9365043328,SSVP5_75,001,bill,
0,0,0,0,5,0,5,0,1404854480.81100,8,2014_Jul_08_1421,59.9365043328,SSVP5_75,001,bill,
0,0,0,0,6,0,6,0,1404854480.94100,8,2014_Jul_08_1421,59.9365043328,SSVP5_75,001,bill,
0,0,0,0,7,0,7,0,1404854481.07800,8,2014_Jul_08_1421,59.9365043328,SSVP5_75,001,bill,
0,0,0,0,8,0,8,0,1404854481.21100,8,2014_Jul_08_1421,59.9365043328,SSVP5_75,001,bill,
0,0,0,0,9,0,9,0,1404854481.34600,8,2014_Jul_08_1421,59.9365043328,SSVP5_75,001,bill,
0,0,0,0,10,0,10,0,1404854481.47800,8,2014_Jul_08_1421,59.9365043328,SSVP5_75,001,bill,
0,0,0,0,11,0,11,0,1404854481.60900,8,2014_Jul_08_1421,59.9365043328,SSVP5_75,001,bill,
0,0,0,0,12,0,12,0,1404854481.74500,8,2014_Jul_08_1421,59.9365043328,SSVP5_75,001,bill,
0,0,0,0,13,0,13,0,1404854481.87900,8,2014_Jul_08_1421,59.9365043328,SSVP5_75,001,bill,
0,0,0,0,14,0,14,0,1404854482.00900,8,2014_Jul_08_1421,59.9365043328,SSVP5_75,001,bill,
0,0,0,0,15,0,15,0,1404854482.14600,8,2014_Jul_08_1421,59.9365043328,SSVP5_75,001,bill,
0,0,0,0,16,0,16,0,1404854482.27600,8,2014_Jul_08_1421,59.9365043328,SSVP5_75,001,bill,
0,0,0,0,17,0,17,0,1404854482.41300,8,2014_Jul_08_1421,59.9365043328,SSVP5_75,001,bill,
0,0,0,0,18,0,18,0,1404854482.54600,8,2014_Jul_08_1421,59.9365043328,SSVP5_75,001,bill,
0,0,0,0,19,0,19,0,1404854482.68100,8,2014_Jul_08_1421,59.9365043328,SSVP5_75,001,bill,
0,0,0,0,20,0,20,0,1404854482.81300,8,2014_Jul_08_1421,59.9365043328,SSVP5_75,001,bill,
0,0,0,0,21,0,21,0,1404854482.94400,8,2014_Jul_08_1421,59.9365043328,SSVP5_75,001,bill,
0,0,0,0,22,0,22,0,1404854483.07700,8,2014_Jul_08_1421,59.9365043328,SSVP5_75,001,bill,
0,0,0,0,23,0,23,0,1404854483.21400,8,2014_Jul_08_1421,59.9365043328,SSVP5_75,001,bill,
0,0,0,0,24,0,24,0,1404854483.34400,8,2014_Jul_08_1421,59.9365043328,SSVP5_75,001,bill,
0,0,0,0,25,0,25,0,1404854483.48100,8,2014_Jul_08_1421,59.9365043328,SSVP5_75,001,bill,
0,0,0,0,26,0,26,0,1404854483.61500,8,2014_Jul_08_1421,59.9365043328,SSVP5_75,001,bill,
0,0,0,0,27,0,27,0,1404854483.74500,8,2014_Jul_08_1421,59.9365043328,SSVP5_75,001,bill,
0,0,0,0,28,0,28,0,1404854483.88100,8,2014_Jul_08_1421,59.9365043328,SSVP5_75,001,bill,
0,0,0,0,29,0,29,0,1404854484.01200,8,2014_Jul_08_1421,59.9365043328,SSVP5_75,001,bill,
0,0,0,0,,,,,,,2014_Jul_08_1421,59.9365043328,SSVP5_75,001,bill,
1,0,1,0,0,0,0,0,1404854486.21500,8,2014_Jul_08_1421,59.9365043328,SSVP5_75,001,bill,
1,0,1,0,1,0,1,0,1404854486.35100,8,2014_Jul_08_1421,59.9365043328,SSVP5_75,001,bill,
1,0,1,0,2,0,2,0,1404854486.48200,8,2014_Jul_08_1421,59.9365043328,SSVP5_75,001,bill,
1,0,1,0,3,0,3,0,1404854486.61800,8,2014_Jul_08_1421,59.9365043328,SSVP5_75,001,bill,
1,0,1,0,4,0,4,0,1404854486.74900,8,2014_Jul_08_1421,59.9365043328,SSVP5_75,001,bill,
1,0,1,0,5,0,5,0,1404854486.88200,8,2014_Jul_08_1421,59.9365043328,SSVP5_75,001,bill,
1,0,1,0,6,0,6,0,1404854487.01900,8,2014_Jul_08_1421,59.9365043328,SSVP5_75,001,bill,
1,0,1,0,7,0,7,0,1404854487.14900,8,2014_Jul_08_1421,59.9365043328,SSVP5_75,001,bill,
1,0,1,0,8,0,8,0,1404854487.28600,8,2014_Jul_08_1421,59.9365043328,SSVP5_75,001,bill,
1,0,1,0,9,0,9,0,1404854487.41600,8,2014_Jul_08_1421,59.9365043328,SSVP5_75,001,bill,
1,0,1,0,10,0,10,0,1404854487.55300,8,2014_Jul_08_1421,59.9365043328,SSVP5_75,001,bill,
1,0,1,0,11,0,11,0,1404854487.68600,8,2014_Jul_08_1421,59.9365043328,SSVP5_75,001,bill,
1,0,1,0,12,0,12,0,1404854487.81700,8,2014_Jul_08_1421,59.9365043328,SSVP5_75,001,bill,
1,0,1,0,13,0,13,0,1404854487.95300,8,2014_Jul_08_1421,59.9365043328,SSVP5_75,001,bill,
1,0,1,0,14,0,14,0,1404854488.08400,8,2014_Jul_08_1421,59.9365043328,SSVP5_75,001,bill,
1,0,1,0,15,0,15,0,1404854488.22000,8,2014_Jul_08_1421,59.9365043328,SSVP5_75,001,bill,
1,0,1,0,16,0,16,0,1404854488.35300,8,2014_Jul_08_1421,59.9365043328,SSVP5_75,001,bill,
1,0,1,0,17,0,17,0,1404854488.48900,8,2014_Jul_08_1421,59.9365043328,SSVP5_75,001,bill,
1,0,1,0,18,0,18,0,1404854488.62100,8,2014_Jul_08_1421,59.9365043328,SSVP5_75,001,bill,
1,0,1,0,19,0,19,0,1404854488.75500,8,2014_Jul_08_1421,59.9365043328,SSVP5_75,001,bill,
1,0,1,0,20,0,20,0,1404854488.88500,8,2014_Jul_08_1421,59.9365043328,SSVP5_75,001,bill,
1,0,1,0,21,0,21,0,1404854489.02100,8,2014_Jul_08_1421,59.9365043328,SSVP5_75,001,bill,
1,0,1,0,22,0,22,0,1404854489.15200,8,2014_Jul_08_1421,59.9365043328,SSVP5_75,001,bill,
1,0,1,0,23,0,23,0,1404854489.28500,8,2014_Jul_08_1421,59.9365043328,SSVP5_75,001,bill,
1,0,1,0,24,0,24,0,1404854489.41900,8,2014_Jul_08_1421,59.9365043328,SSVP5_75,001,bill,
1,0,1,0,25,0,25,0,1404854489.55300,8,2014_Jul_08_1421,59.9365043328,SSVP5_75,001,bill,
1,0,1,0,26,0,26,0,1404854489.68900,8,2014_Jul_08_1421,59.9365043328,SSVP5_75,001,bill,
1,0,1,0,27,0,27,0,1404854489.81900,8,2014_Jul_08_1421,59.9365043328,SSVP5_75,001,bill,
1,0,1,0,28,0,28,0,1404854489.95600,8,2014_Jul_08_1421,59.9365043328,SSVP5_75,001,bill,
1,0,1,0,29,0,29,0,1404854490.09000,8,2014_Jul_08_1421,59.9365043328,SSVP5_75,001,bill,
1,0,1,0,,,,,,,2014_Jul_08_1421,59.9365043328,SSVP5_75,001,bill,
2,0,2,0,0,0,0,0,1404854492.27300,8,2014_Jul_08_1421,59.9365043328,SSVP5_75,001,bill,
2,0,2,0,1,0,1,0,1404854492.40500,8,2014_Jul_08_1421,59.9365043328,SSVP5_75,001,bill,
2,0,2,0,2,0,2,0,1404854492.54000,8,2014_Jul_08_1421,59.9365043328,SSVP5_75,001,bill,
2,0,2,0,3,0,3,0,1404854492.67200,8,2014_Jul_08_1421,59.9365043328,SSVP5_75,001,bill,
2,0,2,0,4,0,4,0,1404854492.80500,8,2014_Jul_08_1421,59.9365043328,SSVP5_75,001,bill,
2,0,2,0,5,0,5,0,1404854492.95700,8,2014_Jul_08_1421,59.9365043328,SSVP5_75,001,bill,
2,0,2,0,6,0,6,0,1404854493.08800,8,2014_Jul_08_1421,59.9365043328,SSVP5_75,001,bill,
2,0,2,0,7,0,7,0,1404854493.22400,8,2014_Jul_08_1421,59.9365043328,SSVP5_75,001,bill,
2,0,2,0,8,0,8,0,1404854493.35700,8,2014_Jul_08_1421,59.9365043328,SSVP5_75,001,bill,
2,0,2,0,9,0,9,0,1404854493.48900,8,2014_Jul_08_1421,59.9365043328,SSVP5_75,001,bill,
2,0,2,0,10,0,10,0,1404854493.62500,8,2014_Jul_08_1421,59.9365043328,SSVP5_75,001,bill,
2,0,2,0,11,0,11,0,1404854493.75700,8,2014_Jul_08_1421,59.9365043328,SSVP5_75,001,bill,
2,0,2,0,12,0,12,0,1404854493.89200,8,2014_Jul_08_1421,59.9365043328,SSVP5_75,001,bill,
2,0,2,0,13,0,13,0,1404854494.02600,8,2014_Jul_08_1421,59.9365043328,SSVP5_75,001,bill,
2,0,2,0,14,0,14,0,1404854494.16100,8,2014_Jul_08_1421,59.9365043328,SSVP5_75,001,bill,
2,0,2,0,15,0,15,0,1404854494.29000,8,2014_Jul_08_1421,59.9365043328,SSVP5_75,001,bill,
2,0,2,0,16,0,16,0,1404854494.42500,8,2014_Jul_08_1421,59.9365043328,SSVP5_75,001,bill,
2,0,2,0,17,0,17,0,1404854494.55900,8,2014_Jul_08_1421,59.9365043328,SSVP5_75,001,bill,
2,0,2,0,18,0,18,0,1404854494.69600,8,2014_Jul_08_1421,59.9365043328,SSVP5_75,001,bill,
2,0,2,0,19,0,19,0,1404854494.82600,8,2014_Jul_08_1421,59.9365043328,SSVP5_75,001,bill,
2,0,2,0,20,0,20,0,1404854494.96400,8,2014_Jul_08_1421,59.9365043328,SSVP5_75,001,bill,
2,0,2,0,21,0,21,0,1404854495.09200,8,2014_Jul_08_1421,59.9365043328,SSVP5_75,001,bill,
2,0,2,0,22,0,22,0,1404854495.22700,8,2014_Jul_08_1421,59.9365043328,SSVP5_75,001,bill,
2,0,2,0,23,0,23,0,1404854495.35900,8,2014_Jul_08_1421,59.9365043328,SSVP5_75,001,bill,
2,0,2,0,24,0,24,0,1404854495.49400,8,2014_Jul_08_1421,59.9365043328,SSVP5_75,001,bill,
2,0,2,0,25,0,25,0,1404854495.62800,8,2014_Jul_08_1421,59.9365043328,SSVP5_75,001,bill,
2,0,2,0,26,0,26,0,1404854495.76400,8,2014_Jul_08_1421,59.9365043328,SSVP5_75,001,bill,
2,0,2,0,27,0,27,0,1404854495.89700,8,2014_Jul_08_1421,59.9365043328,SSVP5_75,001,bill,
2,0,2,0,28,0,28,0,1404854496.02800,8,2014_Jul_08_1421,59.9365043328,SSVP5_75,001,bill,
2,0,2,0,29,0,29,0,1404854496.17800,8,2014_Jul_08_1421,59.9365043328,SSVP5_75,001,bill,
2,0,2,0,,,,,,,2014_Jul_08_1421,59.9365043328,SSVP5_75,001,bill,
3,0,3,0,0,0,0,0,1404854498.40200,8,2014_Jul_08_1421,59.9365043328,SSVP5_75,001,bill,
3,0,3,0,1,0,1,0,1404854498.53200,8,2014_Jul_08_1421,59.9365043328,SSVP5_75,001,bill,
3,0,3,0,2,0,2,0,1404854498.66800,8,2014_Jul_08_1421,59.9365043328,SSVP5_75,001,bill,
3,0,3,0,3,0,3,0,1404854498.79900,8,2014_Jul_08_1421,59.9365043328,SSVP5_75,001,bill,
3,0,3,0,4,0,4,0,1404854498.93200,8,2014_Jul_08_1421,59.9365043328,SSVP5_75,001,bill,
3,0,3,0,5,0,5,0,1404854499.06900,8,2014_Jul_08_1421,59.9365043328,SSVP5_75,001,bill,
3,0,3,0,6,0,6,0,1404854499.20000,8,2014_Jul_08_1421,59.9365043328,SSVP5_75,001,bill,
3,0,3,0,7,0,7,0,1404854499.33300,8,2014_Jul_08_1421,59.9365043328,SSVP5_75,001,bill,
3,0,3,0,8,0,8,0,1404854499.47000,8,2014_Jul_08_1421,59.9365043328,SSVP5_75,001,bill,
3,0,3,0,9,0,9,0,1404854499.60300,8,2014_Jul_08_1421,59.9365043328,SSVP5_75,001,bill,
3,0,3,0,10,0,10,0,1404854499.73700,8,2014_Jul_08_1421,59.9365043328,SSVP5_75,001,bill,
3,0,3,0,11,0,11,0,1404854499.86700,8,2014_Jul_08_1421,59.9365043328,SSVP5_75,001,bill,
3,0,3,0,12,0,12,0,1404854500.00400,8,2014_Jul_08_1421,59.9365043328,SSVP5_75,001,bill,
3,0,3,0,13,0,13,0,1404854500.13400,8,2014_Jul_08_1421,59.9365043328,SSVP5_75,001,bill,
3,0,3,0,14,0,14,0,1404854500.26800,8,2014_Jul_08_1421,59.9365043328,SSVP5_75,001,bill,
3,0,3,0,15,0,15,0,1404854500.40400,8,2014_Jul_08_1421,59.9365043328,SSVP5_75,001,bill,
3,0,3,0,16,0,16,0,1404854500.53500,8,2014_Jul_08_1421,59.9365043328,SSVP5_75,001,bill,
3,0,3,0,17,0,17,0,1404854500.67100,8,2014_Jul_08_1421,59.9365043328,SSVP5_75,001,bill,
3,0,3,0,18,0,18,0,1404854500.80500,8,2014_Jul_08_1421,59.9365043328,SSVP5_75,001,bill,
3,0,3,0,19,0,19,0,1404854500.93500,8,2014_Jul_08_1421,59.9365043328,SSVP5_75,001,bill,
3,0,3,0,20,0,20,0,1404854501.07200,8,2014_Jul_08_1421,59.9365043328,SSVP5_75,001,bill,
3,0,3,0,21,0,21,0,1404854501.20200,8,2014_Jul_08_1421,59.9365043328,SSVP5_75,001,bill,
3,0,3,0,22,0,22,0,1404854501.33600,8,2014_Jul_08_1421,59.9365043328,SSVP5_75,001,bill,
3,0,3,0,23,0,23,0,1404854501.46900,8,2014_Jul_08_1421,59.9365043328,SSVP5_75,001,bill,
3,0,3,0,24,0,24,0,1404854501.60300,8,2014_Jul_08_1421,59.9365043328,SSVP5_75,001,bill,
3,0,3,0,25,0,25,0,1404854501.73600,8,2014_Jul_08_1421,59.9365043328,SSVP5_75,001,bill,
3,0,3,0,26,0,26,0,1404854501.87400,8,2014_Jul_08_1421,59.9365043328,SSVP5_75,001,bill,
3,0,3,0,27,0,27,0,1404854502.00600,8,2014_Jul_08_1421,59.9365043328,SSVP5_75,001,bill,
3,0,3,0,28,0,28,0,1404854502.13700,8,2014_Jul_08_1421,59.9365043328,SSVP5_75,001,bill,
3,0,3,0,29,0,29,0,1404854502.27300,8,2014_Jul_08_1421,59.9365043328,SSVP5_75,001,bill,
3,0,3,0,,,,,,,2014_Jul_08_1421,59.9365043328,SSVP5_75,001,bill,
4,0,4,0,0,0,0,0,1404854504.45500,8,2014_Jul_08_1421,59.9365043328,SSVP5_75,001,bill,
4,0,4,0,1,0,1,0,1404854504.59000,8,2014_Jul_08_1421,59.9365043328,SSVP5_75,001,bill,
4,0,4,0,2,0,2,0,1404854504.72200,8,2014_Jul_08_1421,59.9365043328,SSVP5_75,001,bill,
4,0,4,0,3,0,3,0,1404854504.88900,8,2014_Jul_08_1421,59.9365043328,SSVP5_75,001,bill,
4,0,4,0,4,0,4,0,1404854505.02800,8,2014_Jul_08_1421,59.9365043328,SSVP5_75,001,bill,
4,0,4,0,5,0,5,0,1404854505.16000,8,2014_Jul_08_1421,59.9365043328,SSVP5_75,001,bill,
4,0,4,0,6,0,6,0,1404854505.29100,8,2014_Jul_08_1421,59.9365043328,SSVP5_75,001,bill,
4,0,4,0,7,0,7,0,1404854505.42400,8,2014_Jul_08_1421,59.9365043328,SSVP5_75,001,bill,
4,0,4,0,8,0,8,0,1404854505.56100,8,2014_Jul_08_1421,59.9365043328,SSVP5_75,001,bill,
4,0,4,0,9,0,9,0,1404854505.69500,8,2014_Jul_08_1421,59.9365043328,SSVP5_75,001,bill,
4,0,4,0,10,0,10,0,1404854505.82500,8,2014_Jul_08_1421,59.9365043328,SSVP5_75,001,bill,
4,0,4,0,11,0,11,0,1404854505.96100,8,2014_Jul_08_1421,59.9365043328,SSVP5_75,001,bill,
4,0,4,0,12,0,12,0,1404854506.09200,8,2014_Jul_08_1421,59.9365043328,SSVP5_75,001,bill,
4,0,4,0,13,0,13,0,1404854506.24800,8,2014_Jul_08_1421,59.9365043328,SSVP5_75,001,bill,
4,0,4,0,14,0,14,0,1404854506.37600,8,2014_Jul_08_1421,59.9365043328,SSVP5_75,001,bill,
4,0,4,0,15,0,15,0,1404854506.50700,8,2014_Jul_08_1421,59.9365043328,SSVP5_75,001,bill,
4,0,4,0,16,0,16,0,1404854506.64200,8,2014_Jul_08_1421,59.9365043328,SSVP5_75,001,bill,
4,0,4,0,17,0,17,0,1404854506.79300,8,2014_Jul_08_1421,59.9365043328,SSVP5_75,001,bill,
4,0,4,0,18,0,18,0,1404854506.92700,8,2014_Jul_08_1421,59.9365043328,SSVP5_75,001,bill,
4,0,4,0,19,0,19,0,1404854507.06000,8,2014_Jul_08_1421,59.9365043328,SSVP5_75,001,bill,
4,0,4,0,20,0,20,0,1404854507.19800,8,2014_Jul_08_1421,59.9365043328,SSVP5_75,001,bill,
4,0,4,0,21,0,21,0,1404854507.33000,8,2014_Jul_08_1421,59.9365043328,SSVP5_75,001,bill,
4,0,4,0,22,0,22,0,1404854507.46000,8,2014_Jul_08_1421,59.9365043328,SSVP5_75,001,bill,
4,0,4,0,23,0,23,0,1404854507.59700,8,2014_Jul_08_1421,59.9365043328,SSVP5_75,001,bill,
4,0,4,0,24,0,24,0,1404854507.72800,8,2014_Jul_08_1421,59.9365043328,SSVP5_75,001,bill,
4,0,4,0,25,0,25,0,1404854507.86100,8,2014_Jul_08_1421,59.9365043328,SSVP5_75,001,bill,
4,0,4,0,26,0,26,0,1404854507.99700,8,2014_Jul_08_1421,59.9365043328,SSVP5_75,001,bill,
4,0,4,0,27,0,27,0,1404854508.12800,8,2014_Jul_08_1421,59.9365043328,SSVP5_75,001,bill,
4,0,4,0,28,0,28,0,1404854508.26100,8,2014_Jul_08_1421,59.9365043328,SSVP5_75,001,bill,
4,0,4,0,29,0,29,0,1404854508.39800,8,2014_Jul_08_1421,59.9365043328,SSVP5_75,001,bill,
4,0,4,0,,,,,,,2014_Jul_08_1421,59.9365043328,SSVP5_75,001,bill,
5,0,5,0,0,0,0,0,1404854510.57900,8,2014_Jul_08_1421,59.9365043328,SSVP5_75,001,bill,
5,0,5,0,1,0,1,0,1404854510.71300,8,2014_Jul_08_1421,59.9365043328,SSVP5_75,001,bill,
5,0,5,0,2,0,2,0,1404854510.87000,8,2014_Jul_08_1421,59.9365043328,SSVP5_75,001,bill,
5,0,5,0,3,0,3,0,1404854510.99900,8,2014_Jul_08_1421,59.9365043328,SSVP5_75,001,bill,
5,0,5,0,4,0,4,0,1404854511.13100,8,2014_Jul_08_1421,59.9365043328,SSVP5_75,001,bill,
5,0,5,0,5,0,5,0,1404854511.26500,8,2014_Jul_08_1421,59.9365043328,SSVP5_75,001,bill,
5,0,5,0,6,0,6,0,1404854511.39700,8,2014_Jul_08_1421,59.9365043328,SSVP5_75,001,bill,
5,0,5,0,7,0,7,0,1404854511.53200,8,2014_Jul_08_1421,59.9365043328,SSVP5_75,001,bill,
5,0,5,0,8,0,8,0,1404854511.66700,8,2014_Jul_08_1421,59.9365043328,SSVP5_75,001,bill,
5,0,5,0,9,0,9,0,1404854511.79900,8,2014_Jul_08_1421,59.9365043328,SSVP5_75,001,bill,
5,0,5,0,10,0,10,0,1404854511.93300,8,2014_Jul_08_1421,59.9365043328,SSVP5_75,001,bill,
5,0,5,0,11,0,11,0,1404854512.07100,8,2014_Jul_08_1421,59.9365043328,SSVP5_75,001,bill,
5,0,5,0,12,0,12,0,1404854512.20000,8,2014_Jul_08_1421,59.9365043328,SSVP5_75,001,bill,
5,0,5,0,13,0,13,0,1404854512.33600,8,2014_Jul_08_1421,59.9365043328,SSVP5_75,001,bill,
5,0,5,0,14,0,14,0,1404854512.47000,8,2014_Jul_08_1421,59.9365043328,SSVP5_75,001,bill,
5,0,5,0,15,0,15,0,1404854512.60400,8,2014_Jul_08_1421,59.9365043328,SSVP5_75,001,bill,
5,0,5,0,16,0,16,0,1404854512.73400,8,2014_Jul_08_1421,59.9365043328,SSVP5_75,001,bill,
5,0,5,0,17,0,17,0,1404854512.88400,8,2014_Jul_08_1421,59.9365043328,SSVP5_75,001,bill,
5,0,5,0,18,0,18,0,1404854513.01800,8,2014_Jul_08_1421,59.9365043328,SSVP5_75,001,bill,
5,0,5,0,19,0,19,0,1404854513.15100,8,2014_Jul_08_1421,59.9365043328,SSVP5_75,001,bill,
5,0,5,0,20,0,20,0,1404854513.28500,8,2014_Jul_08_1421,59.9365043328,SSVP5_75,001,bill,
5,0,5,0,21,0,21,0,1404854513.41700,8,2014_Jul_08_1421,59.9365043328,SSVP5_75,001,bill,
5,0,5,0,22,0,22,0,1404854513.55200,8,2014_Jul_08_1421,59.9365043328,SSVP5_75,001,bill,
5,0,5,0,23,0,23,0,1404854513.69200,8,2014_Jul_08_1421,59.9365043328,SSVP5_75,001,bill,
5,0,5,0,24,0,24,0,1404854513.81800,8,2014_Jul_08_1421,59.9365043328,SSVP5_75,001,bill,
5,0,5,0,25,0,25,0,1404854513.95200,8,2014_Jul_08_1421,59.9365043328,SSVP5_75,001,bill,
5,0,5,0,26,0,26,0,1404854514.08600,8,2014_Jul_08_1421,59.9365043328,SSVP5_75,001,bill,
5,0,5,0,27,0,27,0,1404854514.21900,8,2014_Jul_08_1421,59.9365043328,SSVP5_75,001,bill,
5,0,5,0,28,0,28,0,1404854514.35400,8,2014_Jul_08_1421,59.9365043328,SSVP5_75,001,bill,
5,0,5,0,29,0,29,0,1404854514.48600,8,2014_Jul_08_1421,59.9365043328,SSVP5_75,001,bill,
5,0,5,0,,,,,,,2014_Jul_08_1421,59.9365043328,SSVP5_75,001,bill,
6,0,6,0,0,0,0,0,1404854516.62700,8,2014_Jul_08_1421,59.9365043328,SSVP5_75,001,bill,
6,0,6,0,1,0,1,0,1404854516.77200,8,2014_Jul_08_1421,59.9365043328,SSVP5_75,001,bill,
6,0,6,0,2,0,2,0,1404854516.90600,8,2014_Jul_08_1421,59.9365043328,SSVP5_75,001,bill,
6,0,6,0,3,0,3,0,1404854517.03800,8,2014_Jul_08_1421,59.9365043328,SSVP5_75,001,bill,
6,0,6,0,4,0,4,0,1404854517.17600,8,2014_Jul_08_1421,59.9365043328,SSVP5_75,001,bill,
6,0,6,0,5,0,5,0,1404854517.30800,8,2014_Jul_08_1421,59.9365043328,SSVP5_75,001,bill,
6,0,6,0,6,0,6,0,1404854517.44100,8,2014_Jul_08_1421,59.9365043328,SSVP5_75,001,bill,
6,0,6,0,7,0,7,0,1404854517.57900,8,2014_Jul_08_1421,59.9365043328,SSVP5_75,001,bill,
6,0,6,0,8,0,8,0,1404854517.70800,8,2014_Jul_08_1421,59.9365043328,SSVP5_75,001,bill,
6,0,6,0,9,0,9,0,1404854517.84000,8,2014_Jul_08_1421,59.9365043328,SSVP5_75,001,bill,
6,0,6,0,10,0,10,0,1404854517.97500,8,2014_Jul_08_1421,59.9365043328,SSVP5_75,001,bill,
6,0,6,0,11,0,11,0,1404854518.10800,8,2014_Jul_08_1421,59.9365043328,SSVP5_75,001,bill,
6,0,6,0,12,0,12,0,1404854518.24200,8,2014_Jul_08_1421,59.9365043328,SSVP5_75,001,bill,
6,0,6,0,13,0,13,0,1404854518.37600,8,2014_Jul_08_1421,59.9365043328,SSVP5_75,001,bill,
6,0,6,0,14,0,14,0,1404854518.51200,8,2014_Jul_08_1421,59.9365043328,SSVP5_75,001,bill,
6,0,6,0,15,0,15,0,1404854518.64600,8,2014_Jul_08_1421,59.9365043328,SSVP5_75,001,bill,
6,0,6,0,16,0,16,0,1404854518.79200,8,2014_Jul_08_1421,59.9365043328,SSVP5_75,001,bill,
6,0,6,0,17,0,17,0,1404854518.93000,8,2014_Jul_08_1421,59.9365043328,SSVP5_75,001,bill,
6,0,6,0,18,0,18,0,1404854519.06000,8,2014_Jul_08_1421,59.9365043328,SSVP5_75,001,bill,
6,0,6,0,19,0,19,0,1404854519.19200,8,2014_Jul_08_1421,59.9365043328,SSVP5_75,001,bill,
6,0,6,0,20,0,20,0,1404854519.32700,8,2014_Jul_08_1421,59.9365043328,SSVP5_75,001,bill,
6,0,6,0,21,0,21,0,1404854519.46500,8,2014_Jul_08_1421,59.9365043328,SSVP5_75,001,bill,
6,0,6,0,22,0,22,0,1404854519.59700,8,2014_Jul_08_1421,59.9365043328,SSVP5_75,001,bill,
6,0,6,0,23,0,23,0,1404854519.72700,8,2014_Jul_08_1421,59.9365043328,SSVP5_75,001,bill,
6,0,6,0,24,0,24,0,1404854519.86100,8,2014_Jul_08_1421,59.9365043328,SSVP5_75,001,bill,
6,0,6,0,25,0,25,0,1404854519.99500,8,2014_Jul_08_1421,59.9365043328,SSVP5_75,001,bill,
6,0,6,0,26,0,26,0,1404854520.12800,8,2014_Jul_08_1421,59.9365043328,SSVP5_75,001,bill,
6,0,6,0,27,0,27,0,1404854520.26500,8,2014_Jul_08_1421,59.9365043328,SSVP5_75,001,bill,
6,0,6,0,28,0,28,0,1404854520.39500,8,2014_Jul_08_1421,59.9365043328,SSVP5_75,001,bill,
6,0,6,0,29,0,29,0,1404854520.53100,8,2014_Jul_08_1421,59.9365043328,SSVP5_75,001,bill,
6,0,6,0,,,,,,,2014_Jul_08_1421,59.9365043328,SSVP5_75,001,bill,
7,0,7,0,0,0,0,0,1404854522.74800,8,2014_Jul_08_1421,59.9365043328,SSVP5_75,001,bill,
7,0,7,0,1,0,1,0,1404854522.90200,8,2014_Jul_08_1421,59.9365043328,SSVP5_75,001,bill,
7,0,7,0,2,0,2,0,1404854523.03200,8,2014_Jul_08_1421,59.9365043328,SSVP5_75,001,bill,
7,0,7,0,3,0,3,0,1404854523.16800,8,2014_Jul_08_1421,59.9365043328,SSVP5_75,001,bill,
7,0,7,0,4,0,4,0,1404854523.29900,8,2014_Jul_08_1421,59.9365043328,SSVP5_75,001,bill,
7,0,7,0,5,0,5,0,1404854523.43300,8,2014_Jul_08_1421,59.9365043328,SSVP5_75,001,bill,
7,0,7,0,6,0,6,0,1404854523.56900,8,2014_Jul_08_1421,59.9365043328,SSVP5_75,001,bill,
7,0,7,0,7,0,7,0,1404854523.70400,8,2014_Jul_08_1421,59.9365043328,SSVP5_75,001,bill,
7,0,7,0,8,0,8,0,1404854523.83600,8,2014_Jul_08_1421,59.9365043328,SSVP5_75,001,bill,
7,0,7,0,9,0,9,0,1404854523.97100,8,2014_Jul_08_1421,59.9365043328,SSVP5_75,001,bill,
7,0,7,0,10,0,10,0,1404854524.10300,8,2014_Jul_08_1421,59.9365043328,SSVP5_75,001,bill,
7,0,7,0,11,0,11,0,1404854524.23300,8,2014_Jul_08_1421,59.9365043328,SSVP5_75,001,bill,
7,0,7,0,12,0,12,0,1404854524.36700,8,2014_Jul_08_1421,59.9365043328,SSVP5_75,001,bill,
7,0,7,0,13,0,13,0,1404854524.50400,8,2014_Jul_08_1421,59.9365043328,SSVP5_75,001,bill,
7,0,7,0,14,0,14,0,1404854524.63400,8,2014_Jul_08_1421,59.9365043328,SSVP5_75,001,bill,
7,0,7,0,15,0,15,0,1404854524.78400,8,2014_Jul_08_1421,59.9365043328,SSVP5_75,001,bill,
7,0,7,0,16,0,16,0,1404854524.91800,8,2014_Jul_08_1421,59.9365043328,SSVP5_75,001,bill,
7,0,7,0,17,0,17,0,1404854525.04900,8,2014_Jul_08_1421,59.9365043328,SSVP5_75,001,bill,
7,0,7,0,18,0,18,0,1404854525.18400,8,2014_Jul_08_1421,59.9365043328,SSVP5_75,001,bill,
7,0,7,0,19,0,19,0,1404854525.31800,8,2014_Jul_08_1421,59.9365043328,SSVP5_75,001,bill,
7,0,7,0,20,0,20,0,1404854525.45300,8,2014_Jul_08_1421,59.9365043328,SSVP5_75,001,bill,
7,0,7,0,21,0,21,0,1404854525.58500,8,2014_Jul_08_1421,59.9365043328,SSVP5_75,001,bill,
7,0,7,0,22,0,22,0,1404854525.71700,8,2014_Jul_08_1421,59.9365043328,SSVP5_75,001,bill,
7,0,7,0,23,0,23,0,1404854525.85200,8,2014_Jul_08_1421,59.9365043328,SSVP5_75,001,bill,
7,0,7,0,24,0,24,0,1404854525.98600,8,2014_Jul_08_1421,59.9365043328,SSVP5_75,001,bill,
7,0,7,0,25,0,25,0,1404854526.11800,8,2014_Jul_08_1421,59.9365043328,SSVP5_75,001,bill,
7,0,7,0,26,0,26,0,1404854526.26900,8,2014_Jul_08_1421,59.9365043328,SSVP5_75,001,bill,
7,0,7,0,27,0,27,0,1404854526.40100,8,2014_Jul_08_1421,59.9365043328,SSVP5_75,001,bill,
7,0,7,0,28,0,28,0,1404854526.54000,8,2014_Jul_08_1421,59.9365043328,SSVP5_75,001,bill,
7,0,7,0,29,0,29,0,1404854526.67000,8,2014_Jul_08_1421,59.9365043328,SSVP5_75,001,bill,
7,0,7,0,,,,,,,2014_Jul_08_1421,59.9365043328,SSVP5_75,001,bill,
8,0,8,0,0,0,0,0,1404854528.85400,8,2014_Jul_08_1421,59.9365043328,SSVP5_75,001,bill,
8,0,8,0,1,0,1,0,1404854528.98900,8,2014_Jul_08_1421,59.9365043328,SSVP5_75,001,bill,
8,0,8,0,2,0,2,0,1404854529.12300,8,2014_Jul_08_1421,59.9365043328,SSVP5_75,001,bill,
8,0,8,0,3,0,3,0,1404854529.25800,8,2014_Jul_08_1421,59.9365043328,SSVP5_75,001,bill,
8,0,8,0,4,0,4,0,1404854529.39100,8,2014_Jul_08_1421,59.9365043328,SSVP5_75,001,bill,
8,0,8,0,5,0,5,0,1404854529.52200,8,2014_Jul_08_1421,59.9365043328,SSVP5_75,001,bill,
8,0,8,0,6,0,6,0,1404854529.65700,8,2014_Jul_08_1421,59.9365043328,SSVP5_75,001,bill,
8,0,8,0,7,0,7,0,1404854529.79100,8,2014_Jul_08_1421,59.9365043328,SSVP5_75,001,bill,
8,0,8,0,8,0,8,0,1404854529.92700,8,2014_Jul_08_1421,59.9365043328,SSVP5_75,001,bill,
8,0,8,0,9,0,9,0,1404854530.06100,8,2014_Jul_08_1421,59.9365043328,SSVP5_75,001,bill,
8,0,8,0,10,0,10,0,1404854530.19100,8,2014_Jul_08_1421,59.9365043328,SSVP5_75,001,bill,
8,0,8,0,11,0,11,0,1404854530.32800,8,2014_Jul_08_1421,59.9365043328,SSVP5_75,001,bill,
8,0,8,0,12,0,12,0,1404854530.45800,8,2014_Jul_08_1421,59.9365043328,SSVP5_75,001,bill,
8,0,8,0,13,0,13,0,1404854530.59200,8,2014_Jul_08_1421,59.9365043328,SSVP5_75,001,bill,
8,0,8,0,14,0,14,0,1404854530.72500,8,2014_Jul_08_1421,59.9365043328,SSVP5_75,001,bill,
8,0,8,0,15,0,15,0,1404854530.85900,8,2014_Jul_08_1421,59.9365043328,SSVP5_75,001,bill,
8,0,8,0,16,0,16,0,1404854530.99500,8,2014_Jul_08_1421,59.9365043328,SSVP5_75,001,bill,
8,0,8,0,17,0,17,0,1404854531.13000,8,2014_Jul_08_1421,59.9365043328,SSVP5_75,001,bill,
8,0,8,0,18,0,18,0,1404854531.26200,8,2014_Jul_08_1421,59.9365043328,SSVP5_75,001,bill,
8,0,8,0,19,0,19,0,1404854531.39600,8,2014_Jul_08_1421,59.9365043328,SSVP5_75,001,bill,
8,0,8,0,20,0,20,0,1404854531.52600,8,2014_Jul_08_1421,59.9365043328,SSVP5_75,001,bill,
8,0,8,0,21,0,21,0,1404854531.66300,8,2014_Jul_08_1421,59.9365043328,SSVP5_75,001,bill,
8,0,8,0,22,0,22,0,1404854531.79300,8,2014_Jul_08_1421,59.9365043328,SSVP5_75,001,bill,
8,0,8,0,23,0,23,0,1404854531.93000,8,2014_Jul_08_1421,59.9365043328,SSVP5_75,001,bill,
8,0,8,0,24,0,24,0,1404854532.06000,8,2014_Jul_08_1421,59.9365043328,SSVP5_75,001,bill,
8,0,8,0,25,0,25,0,1404854532.19400,8,2014_Jul_08_1421,59.9365043328,SSVP5_75,001,bill,
8,0,8,0,26,0,26,0,1404854532.33000,8,2014_Jul_08_1421,59.9365043328,SSVP5_75,001,bill,
8,0,8,0,27,0,27,0,1404854532.46400,8,2014_Jul_08_1421,59.9365043328,SSVP5_75,001,bill,
8,0,8,0,28,0,28,0,1404854532.59500,8,2014_Jul_08_1421,59.9365043328,SSVP5_75,001,bill,
8,0,8,0,29,0,29,0,1404854532.73200,8,2014_Jul_08_1421,59.9365043328,SSVP5_75,001,bill,
8,0,8,0,,,,,,,2014_Jul_08_1421,59.9365043328,SSVP5_75,001,bill,
9,0,9,0,0,0,0,0,1404854534.91400,8,2014_Jul_08_1421,59.9365043328,SSVP5_75,001,bill,
9,0,9,0,1,0,1,0,1404854535.04700,8,2014_Jul_08_1421,59.9365043328,SSVP5_75,001,bill,
9,0,9,0,2,0,2,0,1404854535.18200,8,2014_Jul_08_1421,59.9365043328,SSVP5_75,001,bill,
9,0,9,0,3,0,3,0,1404854535.31300,8,2014_Jul_08_1421,59.9365043328,SSVP5_75,001,bill,
9,0,9,0,4,0,4,0,1404854535.44900,8,2014_Jul_08_1421,59.9365043328,SSVP5_75,001,bill,
9,0,9,0,5,0,5,0,1404854535.58300,8,2014_Jul_08_1421,59.9365043328,SSVP5_75,001,bill,
9,0,9,0,6,0,6,0,1404854535.71900,8,2014_Jul_08_1421,59.9365043328,SSVP5_75,001,bill,
9,0,9,0,7,0,7,0,1404854535.85300,8,2014_Jul_08_1421,59.9365043328,SSVP5_75,001,bill,
9,0,9,0,8,0,8,0,1404854535.98500,8,2014_Jul_08_1421,59.9365043328,SSVP5_75,001,bill,
9,0,9,0,9,0,9,0,1404854536.11600,8,2014_Jul_08_1421,59.9365043328,SSVP5_75,001,bill,
9,0,9,0,10,0,10,0,1404854536.27100,8,2014_Jul_08_1421,59.9365043328,SSVP5_75,001,bill,
9,0,9,0,11,0,11,0,1404854536.39900,8,2014_Jul_08_1421,59.9365043328,SSVP5_75,001,bill,
9,0,9,0,12,0,12,0,1404854536.53400,8,2014_Jul_08_1421,59.9365043328,SSVP5_75,001,bill,
9,0,9,0,13,0,13,0,1404854536.66600,8,2014_Jul_08_1421,59.9365043328,SSVP5_75,001,bill,
9,0,9,0,14,0,14,0,1404854536.80100,8,2014_Jul_08_1421,59.9365043328,SSVP5_75,001,bill,
9,0,9,0,15,0,15,0,1404854536.93500,8,2014_Jul_08_1421,59.9365043328,SSVP5_75,001,bill,
9,0,9,0,16,0,16,0,1404854537.06700,8,2014_Jul_08_1421,59.9365043328,SSVP5_75,001,bill,
9,0,9,0,17,0,17,0,1404854537.20000,8,2014_Jul_08_1421,59.9365043328,SSVP5_75,001,bill,
9,0,9,0,18,0,18,0,1404854537.33900,8,2014_Jul_08_1421,59.9365043328,SSVP5_75,001,bill,
9,0,9,0,19,0,19,0,1404854537.47200,8,2014_Jul_08_1421,59.9365043328,SSVP5_75,001,bill,
9,0,9,0,20,0,20,0,1404854537.60200,8,2014_Jul_08_1421,59.9365043328,SSVP5_75,001,bill,
9,0,9,0,21,0,21,0,1404854537.73600,8,2014_Jul_08_1421,59.9365043328,SSVP5_75,001,bill,
9,0,9,0,22,0,22,0,1404854537.86900,8,2014_Jul_08_1421,59.9365043328,SSVP5_75,001,bill,
9,0,9,0,23,0,23,0,1404854538.01900,8,2014_Jul_08_1421,59.9365043328,SSVP5_75,001,bill,
9,0,9,0,24,0,24,0,1404854538.15200,8,2014_Jul_08_1421,59.9365043328,SSVP5_75,001,bill,
9,0,9,0,25,0,25,0,1404854538.28600,8,2014_Jul_08_1421,59.9365043328,SSVP5_75,001,bill,
9,0,9,0,26,0,26,0,1404854538.41900,8,2014_Jul_08_1421,59.9365043328,SSVP5_75,001,bill,
9,0,9,0,27,0,27,0,1404854538.55300,8,2014_Jul_08_1421,59.9365043328,SSVP5_75,001,bill,
9,0,9,0,28,0,28,0,1404854538.68700,8,2014_Jul_08_1421,59.9365043328,SSVP5_75,001,bill,
9,0,9,0,29,0,29,0,1404854538.81900,8,2014_Jul_08_1421,59.9365043328,SSVP5_75,001,bill,
9,0,9,0,,,,,,,2014_Jul_08_1421,59.9365043328,SSVP5_75,001,bill,
10,0,10,0,0,0,0,0,1404854541.00400,8,2014_Jul_08_1421,59.9365043328,SSVP5_75,001,bill,
10,0,10,0,1,0,1,0,1404854541.13800,8,2014_Jul_08_1421,59.9365043328,SSVP5_75,001,bill,
10,0,10,0,2,0,2,0,1404854541.27100,8,2014_Jul_08_1421,59.9365043328,SSVP5_75,001,bill,
10,0,10,0,3,0,3,0,1404854541.40600,8,2014_Jul_08_1421,59.9365043328,SSVP5_75,001,bill,
10,0,10,0,4,0,4,0,1404854541.53800,8,2014_Jul_08_1421,59.9365043328,SSVP5_75,001,bill,
10,0,10,0,5,0,5,0,1404854541.67300,8,2014_Jul_08_1421,59.9365043328,SSVP5_75,001,bill,
10,0,10,0,6,0,6,0,1404854541.80600,8,2014_Jul_08_1421,59.9365043328,SSVP5_75,001,bill,
10,0,10,0,7,0,7,0,1404854541.93900,8,2014_Jul_08_1421,59.9365043328,SSVP5_75,001,bill,
10,0,10,0,8,0,8,0,1404854542.07300,8,2014_Jul_08_1421,59.9365043328,SSVP5_75,001,bill,
10,0,10,0,9,0,9,0,1404854542.20600,8,2014_Jul_08_1421,59.9365043328,SSVP5_75,001,bill,
10,0,10,0,10,0,10,0,1404854542.34000,8,2014_Jul_08_1421,59.9365043328,SSVP5_75,001,bill,
10,0,10,0,11,0,11,0,1404854542.47400,8,2014_Jul_08_1421,59.9365043328,SSVP5_75,001,bill,
10,0,10,0,12,0,12,0,1404854542.60600,8,2014_Jul_08_1421,59.9365043328,SSVP5_75,001,bill,
10,0,10,0,13,0,13,0,1404854542.74000,8,2014_Jul_08_1421,59.9365043328,SSVP5_75,001,bill,
10,0,10,0,14,0,14,0,1404854542.87400,8,2014_Jul_08_1421,59.9365043328,SSVP5_75,001,bill,
10,0,10,0,15,0,15,0,1404854543.00800,8,2014_Jul_08_1421,59.9365043328,SSVP5_75,001,bill,
10,0,10,0,16,0,16,0,1404854543.14100,8,2014_Jul_08_1421,59.9365043328,SSVP5_75,001,bill,
10,0,10,0,17,0,17,0,1404854543.27400,8,2014_Jul_08_1421,59.9365043328,SSVP5_75,001,bill,
10,0,10,0,18,0,18,0,1404854543.40800,8,2014_Jul_08_1421,59.9365043328,SSVP5_75,001,bill,
10,0,10,0,19,0,19,0,1404854543.54100,8,2014_Jul_08_1421,59.9365043328,SSVP5_75,001,bill,
10,0,10,0,20,0,20,0,1404854543.67500,8,2014_Jul_08_1421,59.9365043328,SSVP5_75,001,bill,
10,0,10,0,21,0,21,0,1404854543.80800,8,2014_Jul_08_1421,59.9365043328,SSVP5_75,001,bill,
10,0,10,0,22,0,22,0,1404854543.94200,8,2014_Jul_08_1421,59.9365043328,SSVP5_75,001,bill,
10,0,10,0,23,0,23,0,1404854544.07500,8,2014_Jul_08_1421,59.9365043328,SSVP5_75,001,bill,
10,0,10,0,24,0,24,0,1404854544.20900,8,2014_Jul_08_1421,59.9365043328,SSVP5_75,001,bill,
10,0,10,0,25,0,25,0,1404854544.34300,8,2014_Jul_08_1421,59.9365043328,SSVP5_75,001,bill,
10,0,10,0,26,0,26,0,1404854544.47600,8,2014_Jul_08_1421,59.9365043328,SSVP5_75,001,bill,
10,0,10,0,27,0,27,0,1404854544.60900,8,2014_Jul_08_1421,59.9365043328,SSVP5_75,001,bill,
10,0,10,0,28,0,28,0,1404854544.74300,8,2014_Jul_08_1421,59.9365043328,SSVP5_75,001,bill,
10,0,10,0,29,0,29,0,1404854544.87600,8,2014_Jul_08_1421,59.9365043328,SSVP5_75,001,bill,
10,0,10,0,,,,,,,2014_Jul_08_1421,59.9365043328,SSVP5_75,001,bill,
11,0,11,0,0,0,0,0,1404854547.01300,8,2014_Jul_08_1421,59.9365043328,SSVP5_75,001,bill,
11,0,11,0,1,0,1,0,1404854547.14600,8,2014_Jul_08_1421,59.9365043328,SSVP5_75,001,bill,
11,0,11,0,2,0,2,0,1404854547.28000,8,2014_Jul_08_1421,59.9365043328,SSVP5_75,001,bill,
11,0,11,0,3,0,3,0,1404854547.41300,8,2014_Jul_08_1421,59.9365043328,SSVP5_75,001,bill,
11,0,11,0,4,0,4,0,1404854547.54700,8,2014_Jul_08_1421,59.9365043328,SSVP5_75,001,bill,
11,0,11,0,5,0,5,0,1404854547.68000,8,2014_Jul_08_1421,59.9365043328,SSVP5_75,001,bill,
11,0,11,0,6,0,6,0,1404854547.81400,8,2014_Jul_08_1421,59.9365043328,SSVP5_75,001,bill,
11,0,11,0,7,0,7,0,1404854547.94700,8,2014_Jul_08_1421,59.9365043328,SSVP5_75,001,bill,
11,0,11,0,8,0,8,0,1404854548.08100,8,2014_Jul_08_1421,59.9365043328,SSVP5_75,001,bill,
11,0,11,0,9,0,9,0,1404854548.21400,8,2014_Jul_08_1421,59.9365043328,SSVP5_75,001,bill,
11,0,11,0,10,0,10,0,1404854548.34800,8,2014_Jul_08_1421,59.9365043328,SSVP5_75,001,bill,
11,0,11,0,11,0,11,0,1404854548.48100,8,2014_Jul_08_1421,59.9365043328,SSVP5_75,001,bill,
11,0,11,0,12,0,12,0,1404854548.61500,8,2014_Jul_08_1421,59.9365043328,SSVP5_75,001,bill,
11,0,11,0,13,0,13,0,1404854548.74800,8,2014_Jul_08_1421,59.9365043328,SSVP5_75,001,bill,
11,0,11,0,14,0,14,0,1404854548.88200,8,2014_Jul_08_1421,59.9365043328,SSVP5_75,001,bill,
11,0,11,0,15,0,15,0,1404854549.01600,8,2014_Jul_08_1421,59.9365043328,SSVP5_75,001,bill,
11,0,11,0,16,0,16,0,1404854549.14900,8,2014_Jul_08_1421,59.9365043328,SSVP5_75,001,bill,
11,0,11,0,17,0,17,0,1404854549.28200,8,2014_Jul_08_1421,59.9365043328,SSVP5_75,001,bill,
11,0,11,0,18,0,18,0,1404854549.41600,8,2014_Jul_08_1421,59.9365043328,SSVP5_75,001,bill,
11,0,11,0,19,0,19,0,1404854549.54900,8,2014_Jul_08_1421,59.9365043328,SSVP5_75,001,bill,
11,0,11,0,20,0,20,0,1404854549.68300,8,2014_Jul_08_1421,59.9365043328,SSVP5_75,001,bill,
11,0,11,0,21,0,21,0,1404854549.81600,8,2014_Jul_08_1421,59.9365043328,SSVP5_75,001,bill,
11,0,11,0,22,0,22,0,1404854549.95000,8,2014_Jul_08_1421,59.9365043328,SSVP5_75,001,bill,
11,0,11,0,23,0,23,0,1404854550.08400,8,2014_Jul_08_1421,59.9365043328,SSVP5_75,001,bill,
11,0,11,0,24,0,24,0,1404854550.21800,8,2014_Jul_08_1421,59.9365043328,SSVP5_75,001,bill,
11,0,11,0,25,0,25,0,1404854550.35200,8,2014_Jul_08_1421,59.9365043328,SSVP5_75,001,bill,
11,0,11,0,26,0,26,0,1404854550.48500,8,2014_Jul_08_1421,59.9365043328,SSVP5_75,001,bill,
11,0,11,0,27,0,27,0,1404854550.61900,8,2014_Jul_08_1421,59.9365043328,SSVP5_75,001,bill,
11,0,11,0,28,0,28,0,1404854550.75200,8,2014_Jul_08_1421,59.9365043328,SSVP5_75,001,bill,
11,0,11,0,29,0,29,0,1404854550.88500,8,2014_Jul_08_1421,59.9365043328,SSVP5_75,001,bill,
11,0,11,0,,,,,,,2014_Jul_08_1421,59.9365043328,SSVP5_75,001,bill,
12,0,12,0,0,0,0,0,1404854553.02600,8,2014_Jul_08_1421,59.9365043328,SSVP5_75,001,bill,
12,0,12,0,1,0,1,0,1404854553.15700,8,2014_Jul_08_1421,59.9365043328,SSVP5_75,001,bill,
12,0,12,0,2,0,2,0,1404854553.29300,8,2014_Jul_08_1421,59.9365043328,SSVP5_75,001,bill,
12,0,12,0,3,0,3,0,1404854553.42700,8,2014_Jul_08_1421,59.9365043328,SSVP5_75,001,bill,
12,0,12,0,4,0,4,0,1404854553.55800,8,2014_Jul_08_1421,59.9365043328,SSVP5_75,001,bill,
12,0,12,0,5,0,5,0,1404854553.69400,8,2014_Jul_08_1421,59.9365043328,SSVP5_75,001,bill,
12,0,12,0,6,0,6,0,1404854553.82800,8,2014_Jul_08_1421,59.9365043328,SSVP5_75,001,bill,
12,0,12,0,7,0,7,0,1404854553.96100,8,2014_Jul_08_1421,59.9365043328,SSVP5_75,001,bill,
12,0,12,0,8,0,8,0,1404854554.09500,8,2014_Jul_08_1421,59.9365043328,SSVP5_75,001,bill,
12,0,12,0,9,0,9,0,1404854554.22500,8,2014_Jul_08_1421,59.9365043328,SSVP5_75,001,bill,
12,0,12,0,10,0,10,0,1404854554.36100,8,2014_Jul_08_1421,59.9365043328,SSVP5_75,001,bill,
12,0,12,0,11,0,11,0,1404854554.49200,8,2014_Jul_08_1421,59.9365043328,SSVP5_75,001,bill,
12,0,12,0,12,0,12,0,1404854554.62800,8,2014_Jul_08_1421,59.9365043328,SSVP5_75,001,bill,
12,0,12,0,13,0,13,0,1404854554.75900,8,2014_Jul_08_1421,59.9365043328,SSVP5_75,001,bill,
12,0,12,0,14,0,14,0,1404854554.89300,8,2014_Jul_08_1421,59.9365043328,SSVP5_75,001,bill,
12,0,12,0,15,0,15,0,1404854555.02900,8,2014_Jul_08_1421,59.9365043328,SSVP5_75,001,bill,
12,0,12,0,16,0,16,0,1404854555.16000,8,2014_Jul_08_1421,59.9365043328,SSVP5_75,001,bill,
12,0,12,0,17,0,17,0,1404854555.29600,8,2014_Jul_08_1421,59.9365043328,SSVP5_75,001,bill,
12,0,12,0,18,0,18,0,1404854555.42700,8,2014_Jul_08_1421,59.9365043328,SSVP5_75,001,bill,
12,0,12,0,19,0,19,0,1404854555.56300,8,2014_Jul_08_1421,59.9365043328,SSVP5_75,001,bill,
12,0,12,0,20,0,20,0,1404854555.69700,8,2014_Jul_08_1421,59.9365043328,SSVP5_75,001,bill,
12,0,12,0,21,0,21,0,1404854555.83100,8,2014_Jul_08_1421,59.9365043328,SSVP5_75,001,bill,
12,0,12,0,22,0,22,0,1404854555.96100,8,2014_Jul_08_1421,59.9365043328,SSVP5_75,001,bill,
12,0,12,0,23,0,23,0,1404854556.09700,8,2014_Jul_08_1421,59.9365043328,SSVP5_75,001,bill,
12,0,12,0,24,0,24,0,1404854556.23100,8,2014_Jul_08_1421,59.9365043328,SSVP5_75,001,bill,
12,0,12,0,25,0,25,0,1404854556.36100,8,2014_Jul_08_1421,59.9365043328,SSVP5_75,001,bill,
12,0,12,0,26,0,26,0,1404854556.49800,8,2014_Jul_08_1421,59.9365043328,SSVP5_75,001,bill,
12,0,12,0,27,0,27,0,1404854556.63100,8,2014_Jul_08_1421,59.9365043328,SSVP5_75,001,bill,
12,0,12,0,28,0,28,0,1404854556.76500,8,2014_Jul_08_1421,59.9365043328,SSVP5_75,001,bill,
12,0,12,0,29,0,29,0,1404854556.89600,8,2014_Jul_08_1421,59.9365043328,SSVP5_75,001,bill,
12,0,12,0,,,,,,,2014_Jul_08_1421,59.9365043328,SSVP5_75,001,bill,
13,0,13,0,0,0,0,0,1404854559.04600,8,2014_Jul_08_1421,59.9365043328,SSVP5_75,001,bill,
13,0,13,0,1,0,1,0,1404854559.18000,8,2014_Jul_08_1421,59.9365043328,SSVP5_75,001,bill,
13,0,13,0,2,0,2,0,1404854559.31300,8,2014_Jul_08_1421,59.9365043328,SSVP5_75,001,bill,
13,0,13,0,3,0,3,0,1404854559.44700,8,2014_Jul_08_1421,59.9365043328,SSVP5_75,001,bill,
13,0,13,0,4,0,4,0,1404854559.58000,8,2014_Jul_08_1421,59.9365043328,SSVP5_75,001,bill,
13,0,13,0,5,0,5,0,1404854559.71400,8,2014_Jul_08_1421,59.9365043328,SSVP5_75,001,bill,
13,0,13,0,6,0,6,0,1404854559.84700,8,2014_Jul_08_1421,59.9365043328,SSVP5_75,001,bill,
13,0,13,0,7,0,7,0,1404854559.98100,8,2014_Jul_08_1421,59.9365043328,SSVP5_75,001,bill,
13,0,13,0,8,0,8,0,1404854560.11400,8,2014_Jul_08_1421,59.9365043328,SSVP5_75,001,bill,
13,0,13,0,9,0,9,0,1404854560.24800,8,2014_Jul_08_1421,59.9365043328,SSVP5_75,001,bill,
13,0,13,0,10,0,10,0,1404854560.38200,8,2014_Jul_08_1421,59.9365043328,SSVP5_75,001,bill,
13,0,13,0,11,0,11,0,1404854560.51500,8,2014_Jul_08_1421,59.9365043328,SSVP5_75,001,bill,
13,0,13,0,12,0,12,0,1404854560.64800,8,2014_Jul_08_1421,59.9365043328,SSVP5_75,001,bill,
13,0,13,0,13,0,13,0,1404854560.78100,8,2014_Jul_08_1421,59.9365043328,SSVP5_75,001,bill,
13,0,13,0,14,0,14,0,1404854560.91600,8,2014_Jul_08_1421,59.9365043328,SSVP5_75,001,bill,
13,0,13,0,15,0,15,0,1404854561.04900,8,2014_Jul_08_1421,59.9365043328,SSVP5_75,001,bill,
13,0,13,0,16,0,16,0,1404854561.18200,8,2014_Jul_08_1421,59.9365043328,SSVP5_75,001,bill,
13,0,13,0,17,0,17,0,1404854561.31600,8,2014_Jul_08_1421,59.9365043328,SSVP5_75,001,bill,
13,0,13,0,18,0,18,0,1404854561.45000,8,2014_Jul_08_1421,59.9365043328,SSVP5_75,001,bill,
13,0,13,0,19,0,19,0,1404854561.58300,8,2014_Jul_08_1421,59.9365043328,SSVP5_75,001,bill,
13,0,13,0,20,0,20,0,1404854561.71600,8,2014_Jul_08_1421,59.9365043328,SSVP5_75,001,bill,
13,0,13,0,21,0,21,0,1404854561.85000,8,2014_Jul_08_1421,59.9365043328,SSVP5_75,001,bill,
13,0,13,0,22,0,22,0,1404854561.98400,8,2014_Jul_08_1421,59.9365043328,SSVP5_75,001,bill,
13,0,13,0,23,0,23,0,1404854562.11700,8,2014_Jul_08_1421,59.9365043328,SSVP5_75,001,bill,
13,0,13,0,24,0,24,0,1404854562.25000,8,2014_Jul_08_1421,59.9365043328,SSVP5_75,001,bill,
13,0,13,0,25,0,25,0,1404854562.38400,8,2014_Jul_08_1421,59.9365043328,SSVP5_75,001,bill,
13,0,13,0,26,0,26,0,1404854562.51800,8,2014_Jul_08_1421,59.9365043328,SSVP5_75,001,bill,
13,0,13,0,27,0,27,0,1404854562.65000,8,2014_Jul_08_1421,59.9365043328,SSVP5_75,001,bill,
13,0,13,0,28,0,28,0,1404854562.78500,8,2014_Jul_08_1421,59.9365043328,SSVP5_75,001,bill,
13,0,13,0,29,0,29,0,1404854562.91800,8,2014_Jul_08_1421,59.9365043328,SSVP5_75,001,bill,
13,0,13,0,,,,,,,2014_Jul_08_1421,59.9365043328,SSVP5_75,001,bill,
14,0,14,0,0,0,0,0,1404854565.05400,8,2014_Jul_08_1421,59.9365043328,SSVP5_75,001,bill,
14,0,14,0,1,0,1,0,1404854565.18700,8,2014_Jul_08_1421,59.9365043328,SSVP5_75,001,bill,
14,0,14,0,2,0,2,0,1404854565.32100,8,2014_Jul_08_1421,59.9365043328,SSVP5_75,001,bill,
14,0,14,0,3,0,3,0,1404854565.45400,8,2014_Jul_08_1421,59.9365043328,SSVP5_75,001,bill,
14,0,14,0,4,0,4,0,1404854565.58800,8,2014_Jul_08_1421,59.9365043328,SSVP5_75,001,bill,
14,0,14,0,5,0,5,0,1404854565.72200,8,2014_Jul_08_1421,59.9365043328,SSVP5_75,001,bill,
14,0,14,0,6,0,6,0,1404854565.85500,8,2014_Jul_08_1421,59.9365043328,SSVP5_75,001,bill,
14,0,14,0,7,0,7,0,1404854565.98900,8,2014_Jul_08_1421,59.9365043328,SSVP5_75,001,bill,
14,0,14,0,8,0,8,0,1404854566.12200,8,2014_Jul_08_1421,59.9365043328,SSVP5_75,001,bill,
14,0,14,0,9,0,9,0,1404854566.25500,8,2014_Jul_08_1421,59.9365043328,SSVP5_75,001,bill,
14,0,14,0,10,0,10,0,1404854566.39000,8,2014_Jul_08_1421,59.9365043328,SSVP5_75,001,bill,
14,0,14,0,11,0,11,0,1404854566.52300,8,2014_Jul_08_1421,59.9365043328,SSVP5_75,001,bill,
14,0,14,0,12,0,12,0,1404854566.65600,8,2014_Jul_08_1421,59.9365043328,SSVP5_75,001,bill,
14,0,14,0,13,0,13,0,1404854566.79000,8,2014_Jul_08_1421,59.9365043328,SSVP5_75,001,bill,
14,0,14,0,14,0,14,0,1404854566.92300,8,2014_Jul_08_1421,59.9365043328,SSVP5_75,001,bill,
14,0,14,0,15,0,15,0,1404854567.05700,8,2014_Jul_08_1421,59.9365043328,SSVP5_75,001,bill,
14,0,14,0,16,0,16,0,1404854567.19000,8,2014_Jul_08_1421,59.9365043328,SSVP5_75,001,bill,
14,0,14,0,17,0,17,0,1404854567.32400,8,2014_Jul_08_1421,59.9365043328,SSVP5_75,001,bill,
14,0,14,0,18,0,18,0,1404854567.45700,8,2014_Jul_08_1421,59.9365043328,SSVP5_75,001,bill,
14,0,14,0,19,0,19,0,1404854567.59000,8,2014_Jul_08_1421,59.9365043328,SSVP5_75,001,bill,
14,0,14,0,20,0,20,0,1404854567.72600,8,2014_Jul_08_1421,59.9365043328,SSVP5_75,001,bill,
14,0,14,0,21,0,21,0,1404854567.85900,8,2014_Jul_08_1421,59.9365043328,SSVP5_75,001,bill,
14,0,14,0,22,0,22,0,1404854567.99200,8,2014_Jul_08_1421,59.9365043328,SSVP5_75,001,bill,
14,0,14,0,23,0,23,0,1404854568.12600,8,2014_Jul_08_1421,59.9365043328,SSVP5_75,001,bill,
14,0,14,0,24,0,24,0,1404854568.25900,8,2014_Jul_08_1421,59.9365043328,SSVP5_75,001,bill,
14,0,14,0,25,0,25,0,1404854568.39300,8,2014_Jul_08_1421,59.9365043328,SSVP5_75,001,bill,
14,0,14,0,26,0,26,0,1404854568.52600,8,2014_Jul_08_1421,59.9365043328,SSVP5_75,001,bill,
14,0,14,0,27,0,27,0,1404854568.65900,8,2014_Jul_08_1421,59.9365043328,SSVP5_75,001,bill,
14,0,14,0,28,0,28,0,1404854568.79300,8,2014_Jul_08_1421,59.9365043328,SSVP5_75,001,bill,
14,0,14,0,29,0,29,0,1404854568.92600,8,2014_Jul_08_1421,59.9365043328,SSVP5_75,001,bill,
14,0,14,0,,,,,,,2014_Jul_08_1421,59.9365043328,SSVP5_75,001,bill,
15,0,15,0,0,0,0,0,1404854571.06300,8,2014_Jul_08_1421,59.9365043328,SSVP5_75,001,bill,
15,0,15,0,1,0,1,0,1404854571.19600,8,2014_Jul_08_1421,59.9365043328,SSVP5_75,001,bill,
15,0,15,0,2,0,2,0,1404854571.33000,8,2014_Jul_08_1421,59.9365043328,SSVP5_75,001,bill,
15,0,15,0,3,0,3,0,1404854571.46300,8,2014_Jul_08_1421,59.9365043328,SSVP5_75,001,bill,
15,0,15,0,4,0,4,0,1404854571.59700,8,2014_Jul_08_1421,59.9365043328,SSVP5_75,001,bill,
15,0,15,0,5,0,5,0,1404854571.73000,8,2014_Jul_08_1421,59.9365043328,SSVP5_75,001,bill,
15,0,15,0,6,0,6,0,1404854571.86400,8,2014_Jul_08_1421,59.9365043328,SSVP5_75,001,bill,
15,0,15,0,7,0,7,0,1404854571.99800,8,2014_Jul_08_1421,59.9365043328,SSVP5_75,001,bill,
15,0,15,0,8,0,8,0,1404854572.13100,8,2014_Jul_08_1421,59.9365043328,SSVP5_75,001,bill,
15,0,15,0,9,0,9,0,1404854572.26400,8,2014_Jul_08_1421,59.9365043328,SSVP5_75,001,bill,
15,0,15,0,10,0,10,0,1404854572.39900,8,2014_Jul_08_1421,59.9365043328,SSVP5_75,001,bill,
15,0,15,0,11,0,11,0,1404854572.53100,8,2014_Jul_08_1421,59.9365043328,SSVP5_75,001,bill,
15,0,15,0,12,0,12,0,1404854572.66500,8,2014_Jul_08_1421,59.9365043328,SSVP5_75,001,bill,
15,0,15,0,13,0,13,0,1404854572.79900,8,2014_Jul_08_1421,59.9365043328,SSVP5_75,001,bill,
15,0,15,0,14,0,14,0,1404854572.93200,8,2014_Jul_08_1421,59.9365043328,SSVP5_75,001,bill,
15,0,15,0,15,0,15,0,1404854573.06600,8,2014_Jul_08_1421,59.9365043328,SSVP5_75,001,bill,
15,0,15,0,16,0,16,0,1404854573.19900,8,2014_Jul_08_1421,59.9365043328,SSVP5_75,001,bill,
15,0,15,0,17,0,17,0,1404854573.33300,8,2014_Jul_08_1421,59.9365043328,SSVP5_75,001,bill,
15,0,15,0,18,0,18,0,1404854573.46600,8,2014_Jul_08_1421,59.9365043328,SSVP5_75,001,bill,
15,0,15,0,19,0,19,0,1404854573.60000,8,2014_Jul_08_1421,59.9365043328,SSVP5_75,001,bill,
15,0,15,0,20,0,20,0,1404854573.73300,8,2014_Jul_08_1421,59.9365043328,SSVP5_75,001,bill,
15,0,15,0,21,0,21,0,1404854573.86600,8,2014_Jul_08_1421,59.9365043328,SSVP5_75,001,bill,
15,0,15,0,22,0,22,0,1404854574.00000,8,2014_Jul_08_1421,59.9365043328,SSVP5_75,001,bill,
15,0,15,0,23,0,23,0,1404854574.13300,8,2014_Jul_08_1421,59.9365043328,SSVP5_75,001,bill,
15,0,15,0,24,0,24,0,1404854574.26700,8,2014_Jul_08_1421,59.9365043328,SSVP5_75,001,bill,
15,0,15,0,25,0,25,0,1404854574.40000,8,2014_Jul_08_1421,59.9365043328,SSVP5_75,001,bill,
15,0,15,0,26,0,26,0,1404854574.53400,8,2014_Jul_08_1421,59.9365043328,SSVP5_75,001,bill,
15,0,15,0,27,0,27,0,1404854574.66800,8,2014_Jul_08_1421,59.9365043328,SSVP5_75,001,bill,
15,0,15,0,28,0,28,0,1404854574.80200,8,2014_Jul_08_1421,59.9365043328,SSVP5_75,001,bill,
15,0,15,0,29,0,29,0,1404854574.93400,8,2014_Jul_08_1421,59.9365043328,SSVP5_75,001,bill,
15,0,15,0,,,,,,,2014_Jul_08_1421,59.9365043328,SSVP5_75,001,bill,
16,0,16,0,0,0,0,0,1404854577.07100,8,2014_Jul_08_1421,59.9365043328,SSVP5_75,001,bill,
16,0,16,0,1,0,1,0,1404854577.20400,8,2014_Jul_08_1421,59.9365043328,SSVP5_75,001,bill,
16,0,16,0,2,0,2,0,1404854577.33800,8,2014_Jul_08_1421,59.9365043328,SSVP5_75,001,bill,
16,0,16,0,3,0,3,0,1404854577.47100,8,2014_Jul_08_1421,59.9365043328,SSVP5_75,001,bill,
16,0,16,0,4,0,4,0,1404854577.60500,8,2014_Jul_08_1421,59.9365043328,SSVP5_75,001,bill,
16,0,16,0,5,0,5,0,1404854577.73800,8,2014_Jul_08_1421,59.9365043328,SSVP5_75,001,bill,
16,0,16,0,6,0,6,0,1404854577.87200,8,2014_Jul_08_1421,59.9365043328,SSVP5_75,001,bill,
16,0,16,0,7,0,7,0,1404854578.00600,8,2014_Jul_08_1421,59.9365043328,SSVP5_75,001,bill,
16,0,16,0,8,0,8,0,1404854578.13900,8,2014_Jul_08_1421,59.9365043328,SSVP5_75,001,bill,
16,0,16,0,9,0,9,0,1404854578.27300,8,2014_Jul_08_1421,59.9365043328,SSVP5_75,001,bill,
16,0,16,0,10,0,10,0,1404854578.40600,8,2014_Jul_08_1421,59.9365043328,SSVP5_75,001,bill,
16,0,16,0,11,0,11,0,1404854578.53900,8,2014_Jul_08_1421,59.9365043328,SSVP5_75,001,bill,
16,0,16,0,12,0,12,0,1404854578.67300,8,2014_Jul_08_1421,59.9365043328,SSVP5_75,001,bill,
16,0,16,0,13,0,13,0,1404854578.80600,8,2014_Jul_08_1421,59.9365043328,SSVP5_75,001,bill,
16,0,16,0,14,0,14,0,1404854578.94000,8,2014_Jul_08_1421,59.9365043328,SSVP5_75,001,bill,
16,0,16,0,15,0,15,0,1404854579.07400,8,2014_Jul_08_1421,59.9365043328,SSVP5_75,001,bill,
16,0,16,0,16,0,16,0,1404854579.20700,8,2014_Jul_08_1421,59.9365043328,SSVP5_75,001,bill,
16,0,16,0,17,0,17,0,1404854579.34000,8,2014_Jul_08_1421,59.9365043328,SSVP5_75,001,bill,
16,0,16,0,18,0,18,0,1404854579.47400,8,2014_Jul_08_1421,59.9365043328,SSVP5_75,001,bill,
16,0,16,0,19,0,19,0,1404854579.60800,8,2014_Jul_08_1421,59.9365043328,SSVP5_75,001,bill,
16,0,16,0,20,0,20,0,1404854579.74100,8,2014_Jul_08_1421,59.9365043328,SSVP5_75,001,bill,
16,0,16,0,21,0,21,0,1404854579.87500,8,2014_Jul_08_1421,59.9365043328,SSVP5_75,001,bill,
16,0,16,0,22,0,22,0,1404854580.00800,8,2014_Jul_08_1421,59.9365043328,SSVP5_75,001,bill,
16,0,16,0,23,0,23,0,1404854580.14200,8,2014_Jul_08_1421,59.9365043328,SSVP5_75,001,bill,
16,0,16,0,24,0,24,0,1404854580.27500,8,2014_Jul_08_1421,59.9365043328,SSVP5_75,001,bill,
16,0,16,0,25,0,25,0,1404854580.40900,8,2014_Jul_08_1421,59.9365043328,SSVP5_75,001,bill,
16,0,16,0,26,0,26,0,1404854580.54200,8,2014_Jul_08_1421,59.9365043328,SSVP5_75,001,bill,
16,0,16,0,27,0,27,0,1404854580.67600,8,2014_Jul_08_1421,59.9365043328,SSVP5_75,001,bill,
16,0,16,0,28,0,28,0,1404854580.80900,8,2014_Jul_08_1421,59.9365043328,SSVP5_75,001,bill,
16,0,16,0,29,0,29,0,1404854580.94300,8,2014_Jul_08_1421,59.9365043328,SSVP5_75,001,bill,
16,0,16,0,,,,,,,2014_Jul_08_1421,59.9365043328,SSVP5_75,001,bill,
17,0,17,0,0,0,0,0,1404854583.07800,8,2014_Jul_08_1421,59.9365043328,SSVP5_75,001,bill,
17,0,17,0,1,0,1,0,1404854583.21200,8,2014_Jul_08_1421,59.9365043328,SSVP5_75,001,bill,
17,0,17,0,2,0,2,0,1404854583.34600,8,2014_Jul_08_1421,59.9365043328,SSVP5_75,001,bill,
17,0,17,0,3,0,3,0,1404854583.47900,8,2014_Jul_08_1421,59.9365043328,SSVP5_75,001,bill,
17,0,17,0,4,0,4,0,1404854583.61200,8,2014_Jul_08_1421,59.9365043328,SSVP5_75,001,bill,
17,0,17,0,5,0,5,0,1404854583.74600,8,2014_Jul_08_1421,59.9365043328,SSVP5_75,001,bill,
17,0,17,0,6,0,6,0,1404854583.88000,8,2014_Jul_08_1421,59.9365043328,SSVP5_75,001,bill,
17,0,17,0,7,0,7,0,1404854584.01300,8,2014_Jul_08_1421,59.9365043328,SSVP5_75,001,bill,
17,0,17,0,8,0,8,0,1404854584.14700,8,2014_Jul_08_1421,59.9365043328,SSVP5_75,001,bill,
17,0,17,0,9,0,9,0,1404854584.28100,8,2014_Jul_08_1421,59.9365043328,SSVP5_75,001,bill,
17,0,17,0,10,0,10,0,1404854584.41400,8,2014_Jul_08_1421,59.9365043328,SSVP5_75,001,bill,
17,0,17,0,11,0,11,0,1404854584.54700,8,2014_Jul_08_1421,59.9365043328,SSVP5_75,001,bill,
17,0,17,0,12,0,12,0,1404854584.68100,8,2014_Jul_08_1421,59.9365043328,SSVP5_75,001,bill,
17,0,17,0,13,0,13,0,1404854584.81500,8,2014_Jul_08_1421,59.9365043328,SSVP5_75,001,bill,
17,0,17,0,14,0,14,0,1404854584.94800,8,2014_Jul_08_1421,59.9365043328,SSVP5_75,001,bill,
17,0,17,0,15,0,15,0,1404854585.08100,8,2014_Jul_08_1421,59.9365043328,SSVP5_75,001,bill,
17,0,17,0,16,0,16,0,1404854585.21600,8,2014_Jul_08_1421,59.9365043328,SSVP5_75,001,bill,
17,0,17,0,17,0,17,0,1404854585.34900,8,2014_Jul_08_1421,59.9365043328,SSVP5_75,001,bill,
17,0,17,0,18,0,18,0,1404854585.48300,8,2014_Jul_08_1421,59.9365043328,SSVP5_75,001,bill,
17,0,17,0,19,0,19,0,1404854585.61700,8,2014_Jul_08_1421,59.9365043328,SSVP5_75,001,bill,
17,0,17,0,20,0,20,0,1404854585.75000,8,2014_Jul_08_1421,59.9365043328,SSVP5_75,001,bill,
17,0,17,0,21,0,21,0,1404854585.88300,8,2014_Jul_08_1421,59.9365043328,SSVP5_75,001,bill,
17,0,17,0,22,0,22,0,1404854586.01700,8,2014_Jul_08_1421,59.9365043328,SSVP5_75,001,bill,
17,0,17,0,23,0,23,0,1404854586.15000,8,2014_Jul_08_1421,59.9365043328,SSVP5_75,001,bill,
17,0,17,0,24,0,24,0,1404854586.28400,8,2014_Jul_08_1421,59.9365043328,SSVP5_75,001,bill,
17,0,17,0,25,0,25,0,1404854586.41700,8,2014_Jul_08_1421,59.9365043328,SSVP5_75,001,bill,
17,0,17,0,26,0,26,0,1404854586.55100,8,2014_Jul_08_1421,59.9365043328,SSVP5_75,001,bill,
17,0,17,0,27,0,27,0,1404854586.68400,8,2014_Jul_08_1421,59.9365043328,SSVP5_75,001,bill,
17,0,17,0,28,0,28,0,1404854586.81800,8,2014_Jul_08_1421,59.9365043328,SSVP5_75,001,bill,
17,0,17,0,29,0,29,0,1404854586.95100,8,2014_Jul_08_1421,59.9365043328,SSVP5_75,001,bill,
17,0,17,0,,,,,,,2014_Jul_08_1421,59.9365043328,SSVP5_75,001,bill,
18,0,18,0,0,0,0,0,1404854589.08800,8,2014_Jul_08_1421,59.9365043328,SSVP5_75,001,bill,
18,0,18,0,1,0,1,0,1404854589.22100,8,2014_Jul_08_1421,59.9365043328,SSVP5_75,001,bill,
18,0,18,0,2,0,2,0,1404854589.35500,8,2014_Jul_08_1421,59.9365043328,SSVP5_75,001,bill,
18,0,18,0,3,0,3,0,1404854589.48800,8,2014_Jul_08_1421,59.9365043328,SSVP5_75,001,bill,
18,0,18,0,4,0,4,0,1404854589.62200,8,2014_Jul_08_1421,59.9365043328,SSVP5_75,001,bill,
18,0,18,0,5,0,5,0,1404854589.75500,8,2014_Jul_08_1421,59.9365043328,SSVP5_75,001,bill,
18,0,18,0,6,0,6,0,1404854589.88800,8,2014_Jul_08_1421,59.9365043328,SSVP5_75,001,bill,
18,0,18,0,7,0,7,0,1404854590.02300,8,2014_Jul_08_1421,59.9365043328,SSVP5_75,001,bill,
18,0,18,0,8,0,8,0,1404854590.15600,8,2014_Jul_08_1421,59.9365043328,SSVP5_75,001,bill,
18,0,18,0,9,0,9,0,1404854590.29000,8,2014_Jul_08_1421,59.9365043328,SSVP5_75,001,bill,
18,0,18,0,10,0,10,0,1404854590.42300,8,2014_Jul_08_1421,59.9365043328,SSVP5_75,001,bill,
18,0,18,0,11,0,11,0,1404854590.55700,8,2014_Jul_08_1421,59.9365043328,SSVP5_75,001,bill,
18,0,18,0,12,0,12,0,1404854590.69000,8,2014_Jul_08_1421,59.9365043328,SSVP5_75,001,bill,
18,0,18,0,13,0,13,0,1404854590.82300,8,2014_Jul_08_1421,59.9365043328,SSVP5_75,001,bill,
18,0,18,0,14,0,14,0,1404854590.95600,8,2014_Jul_08_1421,59.9365043328,SSVP5_75,001,bill,
18,0,18,0,15,0,15,0,1404854591.09000,8,2014_Jul_08_1421,59.9365043328,SSVP5_75,001,bill,
18,0,18,0,16,0,16,0,1404854591.22300,8,2014_Jul_08_1421,59.9365043328,SSVP5_75,001,bill,
18,0,18,0,17,0,17,0,1404854591.35700,8,2014_Jul_08_1421,59.9365043328,SSVP5_75,001,bill,
18,0,18,0,18,0,18,0,1404854591.49000,8,2014_Jul_08_1421,59.9365043328,SSVP5_75,001,bill,
18,0,18,0,19,0,19,0,1404854591.62500,8,2014_Jul_08_1421,59.9365043328,SSVP5_75,001,bill,
18,0,18,0,20,0,20,0,1404854591.75800,8,2014_Jul_08_1421,59.9365043328,SSVP5_75,001,bill,
18,0,18,0,21,0,21,0,1404854591.89100,8,2014_Jul_08_1421,59.9365043328,SSVP5_75,001,bill,
18,0,18,0,22,0,22,0,1404854592.02600,8,2014_Jul_08_1421,59.9365043328,SSVP5_75,001,bill,
18,0,18,0,23,0,23,0,1404854592.15800,8,2014_Jul_08_1421,59.9365043328,SSVP5_75,001,bill,
18,0,18,0,24,0,24,0,1404854592.29200,8,2014_Jul_08_1421,59.9365043328,SSVP5_75,001,bill,
18,0,18,0,25,0,25,0,1404854592.42500,8,2014_Jul_08_1421,59.9365043328,SSVP5_75,001,bill,
18,0,18,0,26,0,26,0,1404854592.55900,8,2014_Jul_08_1421,59.9365043328,SSVP5_75,001,bill,
18,0,18,0,27,0,27,0,1404854592.69200,8,2014_Jul_08_1421,59.9365043328,SSVP5_75,001,bill,
18,0,18,0,28,0,28,0,1404854592.82600,8,2014_Jul_08_1421,59.9365043328,SSVP5_75,001,bill,
18,0,18,0,29,0,29,0,1404854592.96000,8,2014_Jul_08_1421,59.9365043328,SSVP5_75,001,bill,
18,0,18,0,,,,,,,2014_Jul_08_1421,59.9365043328,SSVP5_75,001,bill,
19,0,19,0,0,0,0,0,1404854595.09600,8,2014_Jul_08_1421,59.9365043328,SSVP5_75,001,bill,
19,0,19,0,1,0,1,0,1404854595.22900,8,2014_Jul_08_1421,59.9365043328,SSVP5_75,001,bill,
19,0,19,0,2,0,2,0,1404854595.36300,8,2014_Jul_08_1421,59.9365043328,SSVP5_75,001,bill,
19,0,19,0,3,0,3,0,1404854595.49600,8,2014_Jul_08_1421,59.9365043328,SSVP5_75,001,bill,
19,0,19,0,4,0,4,0,1404854595.63000,8,2014_Jul_08_1421,59.9365043328,SSVP5_75,001,bill,
19,0,19,0,5,0,5,0,1404854595.76300,8,2014_Jul_08_1421,59.9365043328,SSVP5_75,001,bill,
19,0,19,0,6,0,6,0,1404854595.89600,8,2014_Jul_08_1421,59.9365043328,SSVP5_75,001,bill,
19,0,19,0,7,0,7,0,1404854596.03000,8,2014_Jul_08_1421,59.9365043328,SSVP5_75,001,bill,
19,0,19,0,8,0,8,0,1404854596.16300,8,2014_Jul_08_1421,59.9365043328,SSVP5_75,001,bill,
19,0,19,0,9,0,9,0,1404854596.29700,8,2014_Jul_08_1421,59.9365043328,SSVP5_75,001,bill,
19,0,19,0,10,0,10,0,1404854596.43100,8,2014_Jul_08_1421,59.9365043328,SSVP5_75,001,bill,
19,0,19,0,11,0,11,0,1404854596.56400,8,2014_Jul_08_1421,59.9365043328,SSVP5_75,001,bill,
19,0,19,0,12,0,12,0,1404854596.69800,8,2014_Jul_08_1421,59.9365043328,SSVP5_75,001,bill,
19,0,19,0,13,0,13,0,1404854596.83100,8,2014_Jul_08_1421,59.9365043328,SSVP5_75,001,bill,
19,0,19,0,14,0,14,0,1404854596.96600,8,2014_Jul_08_1421,59.9365043328,SSVP5_75,001,bill,
19,0,19,0,15,0,15,0,1404854597.09800,8,2014_Jul_08_1421,59.9365043328,SSVP5_75,001,bill,
19,0,19,0,16,0,16,0,1404854597.23200,8,2014_Jul_08_1421,59.9365043328,SSVP5_75,001,bill,
19,0,19,0,17,0,17,0,1404854597.36600,8,2014_Jul_08_1421,59.9365043328,SSVP5_75,001,bill,
19,0,19,0,18,0,18,0,1404854597.49800,8,2014_Jul_08_1421,59.9365043328,SSVP5_75,001,bill,
19,0,19,0,19,0,19,0,1404854597.63300,8,2014_Jul_08_1421,59.9365043328,SSVP5_75,001,bill,
19,0,19,0,20,0,20,0,1404854597.76600,8,2014_Jul_08_1421,59.9365043328,SSVP5_75,001,bill,
19,0,19,0,21,0,21,0,1404854597.91600,8,2014_Jul_08_1421,59.9365043328,SSVP5_75,001,bill,
19,0,19,0,22,0,22,0,1404854598.04900,8,2014_Jul_08_1421,59.9365043328,SSVP5_75,001,bill,
19,0,19,0,23,0,23,0,1404854598.18300,8,2014_Jul_08_1421,59.9365043328,SSVP5_75,001,bill,
19,0,19,0,24,0,24,0,1404854598.31600,8,2014_Jul_08_1421,59.9365043328,SSVP5_75,001,bill,
19,0,19,0,25,0,25,0,1404854598.45000,8,2014_Jul_08_1421,59.9365043328,SSVP5_75,001,bill,
19,0,19,0,26,0,26,0,1404854598.58300,8,2014_Jul_08_1421,59.9365043328,SSVP5_75,001,bill,
19,0,19,0,27,0,27,0,1404854598.71700,8,2014_Jul_08_1421,59.9365043328,SSVP5_75,001,bill,
19,0,19,0,28,0,28,0,1404854598.85000,8,2014_Jul_08_1421,59.9365043328,SSVP5_75,001,bill,
19,0,19,0,29,0,29,0,1404854598.98400,8,2014_Jul_08_1421,59.9365043328,SSVP5_75,001,bill,
19,0,19,0,,,,,,,2014_Jul_08_1421,59.9365043328,SSVP5_75,001,bill,
20,0,20,0,0,0,0,0,1404854601.12000,8,2014_Jul_08_1421,59.9365043328,SSVP5_75,001,bill,
20,0,20,0,1,0,1,0,1404854601.25400,8,2014_Jul_08_1421,59.9365043328,SSVP5_75,001,bill,
20,0,20,0,2,0,2,0,1404854601.38800,8,2014_Jul_08_1421,59.9365043328,SSVP5_75,001,bill,
20,0,20,0,3,0,3,0,1404854601.52000,8,2014_Jul_08_1421,59.9365043328,SSVP5_75,001,bill,
20,0,20,0,4,0,4,0,1404854601.65400,8,2014_Jul_08_1421,59.9365043328,SSVP5_75,001,bill,
20,0,20,0,5,0,5,0,1404854601.78700,8,2014_Jul_08_1421,59.9365043328,SSVP5_75,001,bill,
20,0,20,0,6,0,6,0,1404854601.92200,8,2014_Jul_08_1421,59.9365043328,SSVP5_75,001,bill,
20,0,20,0,7,0,7,0,1404854602.05500,8,2014_Jul_08_1421,59.9365043328,SSVP5_75,001,bill,
20,0,20,0,8,0,8,0,1404854602.18800,8,2014_Jul_08_1421,59.9365043328,SSVP5_75,001,bill,
20,0,20,0,9,0,9,0,1404854602.32100,8,2014_Jul_08_1421,59.9365043328,SSVP5_75,001,bill,
20,0,20,0,10,0,10,0,1404854602.45500,8,2014_Jul_08_1421,59.9365043328,SSVP5_75,001,bill,
20,0,20,0,11,0,11,0,1404854602.58900,8,2014_Jul_08_1421,59.9365043328,SSVP5_75,001,bill,
20,0,20,0,12,0,12,0,1404854602.72400,8,2014_Jul_08_1421,59.9365043328,SSVP5_75,001,bill,
20,0,20,0,13,0,13,0,1404854602.85700,8,2014_Jul_08_1421,59.9365043328,SSVP5_75,001,bill,
20,0,20,0,14,0,14,0,1404854602.99100,8,2014_Jul_08_1421,59.9365043328,SSVP5_75,001,bill,
20,0,20,0,15,0,15,0,1404854603.12400,8,2014_Jul_08_1421,59.9365043328,SSVP5_75,001,bill,
20,0,20,0,16,0,16,0,1404854603.25700,8,2014_Jul_08_1421,59.9365043328,SSVP5_75,001,bill,
20,0,20,0,17,0,17,0,1404854603.39100,8,2014_Jul_08_1421,59.9365043328,SSVP5_75,001,bill,
20,0,20,0,18,0,18,0,1404854603.52400,8,2014_Jul_08_1421,59.9365043328,SSVP5_75,001,bill,
20,0,20,0,19,0,19,0,1404854603.65800,8,2014_Jul_08_1421,59.9365043328,SSVP5_75,001,bill,
20,0,20,0,20,0,20,0,1404854603.79100,8,2014_Jul_08_1421,59.9365043328,SSVP5_75,001,bill,
20,0,20,0,21,0,21,0,1404854603.92500,8,2014_Jul_08_1421,59.9365043328,SSVP5_75,001,bill,
20,0,20,0,22,0,22,0,1404854604.05800,8,2014_Jul_08_1421,59.9365043328,SSVP5_75,001,bill,
20,0,20,0,23,0,23,0,1404854604.19200,8,2014_Jul_08_1421,59.9365043328,SSVP5_75,001,bill,
20,0,20,0,24,0,24,0,1404854604.32600,8,2014_Jul_08_1421,59.9365043328,SSVP5_75,001,bill,
20,0,20,0,25,0,25,0,1404854604.45900,8,2014_Jul_08_1421,59.9365043328,SSVP5_75,001,bill,
20,0,20,0,26,0,26,0,1404854604.59200,8,2014_Jul_08_1421,59.9365043328,SSVP5_75,001,bill,
20,0,20,0,27,0,27,0,1404854604.72600,8,2014_Jul_08_1421,59.9365043328,SSVP5_75,001,bill,
20,0,20,0,28,0,28,0,1404854604.85900,8,2014_Jul_08_1421,59.9365043328,SSVP5_75,001,bill,
20,0,20,0,29,0,29,0,1404854604.99300,8,2014_Jul_08_1421,59.9365043328,SSVP5_75,001,bill,
20,0,20,0,,,,,,,2014_Jul_08_1421,59.9365043328,SSVP5_75,001,bill,
21,0,21,0,0,0,0,0,1404854607.12900,8,2014_Jul_08_1421,59.9365043328,SSVP5_75,001,bill,
21,0,21,0,1,0,1,0,1404854607.26200,8,2014_Jul_08_1421,59.9365043328,SSVP5_75,001,bill,
21,0,21,0,2,0,2,0,1404854607.39600,8,2014_Jul_08_1421,59.9365043328,SSVP5_75,001,bill,
21,0,21,0,3,0,3,0,1404854607.52900,8,2014_Jul_08_1421,59.9365043328,SSVP5_75,001,bill,
21,0,21,0,4,0,4,0,1404854607.66300,8,2014_Jul_08_1421,59.9365043328,SSVP5_75,001,bill,
21,0,21,0,5,0,5,0,1404854607.79600,8,2014_Jul_08_1421,59.9365043328,SSVP5_75,001,bill,
21,0,21,0,6,0,6,0,1404854607.93000,8,2014_Jul_08_1421,59.9365043328,SSVP5_75,001,bill,
21,0,21,0,7,0,7,0,1404854608.06300,8,2014_Jul_08_1421,59.9365043328,SSVP5_75,001,bill,
21,0,21,0,8,0,8,0,1404854608.19700,8,2014_Jul_08_1421,59.9365043328,SSVP5_75,001,bill,
21,0,21,0,9,0,9,0,1404854608.33000,8,2014_Jul_08_1421,59.9365043328,SSVP5_75,001,bill,
21,0,21,0,10,0,10,0,1404854608.46400,8,2014_Jul_08_1421,59.9365043328,SSVP5_75,001,bill,
21,0,21,0,11,0,11,0,1404854608.59800,8,2014_Jul_08_1421,59.9365043328,SSVP5_75,001,bill,
21,0,21,0,12,0,12,0,1404854608.73100,8,2014_Jul_08_1421,59.9365043328,SSVP5_75,001,bill,
21,0,21,0,13,0,13,0,1404854608.86400,8,2014_Jul_08_1421,59.9365043328,SSVP5_75,001,bill,
21,0,21,0,14,0,14,0,1404854608.99900,8,2014_Jul_08_1421,59.9365043328,SSVP5_75,001,bill,
21,0,21,0,15,0,15,0,1404854609.13200,8,2014_Jul_08_1421,59.9365043328,SSVP5_75,001,bill,
21,0,21,0,16,0,16,0,1404854609.26500,8,2014_Jul_08_1421,59.9365043328,SSVP5_75,001,bill,
21,0,21,0,17,0,17,0,1404854609.39900,8,2014_Jul_08_1421,59.9365043328,SSVP5_75,001,bill,
21,0,21,0,18,0,18,0,1404854609.53200,8,2014_Jul_08_1421,59.9365043328,SSVP5_75,001,bill,
21,0,21,0,19,0,19,0,1404854609.66700,8,2014_Jul_08_1421,59.9365043328,SSVP5_75,001,bill,
21,0,21,0,20,0,20,0,1404854609.79900,8,2014_Jul_08_1421,59.9365043328,SSVP5_75,001,bill,
21,0,21,0,21,0,21,0,1404854609.93300,8,2014_Jul_08_1421,59.9365043328,SSVP5_75,001,bill,
21,0,21,0,22,0,22,0,1404854610.06600,8,2014_Jul_08_1421,59.9365043328,SSVP5_75,001,bill,
21,0,21,0,23,0,23,0,1404854610.19900,8,2014_Jul_08_1421,59.9365043328,SSVP5_75,001,bill,
21,0,21,0,24,0,24,0,1404854610.33400,8,2014_Jul_08_1421,59.9365043328,SSVP5_75,001,bill,
21,0,21,0,25,0,25,0,1404854610.46700,8,2014_Jul_08_1421,59.9365043328,SSVP5_75,001,bill,
21,0,21,0,26,0,26,0,1404854610.60100,8,2014_Jul_08_1421,59.9365043328,SSVP5_75,001,bill,
21,0,21,0,27,0,27,0,1404854610.73400,8,2014_Jul_08_1421,59.9365043328,SSVP5_75,001,bill,
21,0,21,0,28,0,28,0,1404854610.86700,8,2014_Jul_08_1421,59.9365043328,SSVP5_75,001,bill,
21,0,21,0,29,0,29,0,1404854611.00100,8,2014_Jul_08_1421,59.9365043328,SSVP5_75,001,bill,
21,0,21,0,,,,,,,2014_Jul_08_1421,59.9365043328,SSVP5_75,001,bill,
22,0,22,0,0,0,0,0,1404854613.14200,8,2014_Jul_08_1421,59.9365043328,SSVP5_75,001,bill,
22,0,22,0,1,0,1,0,1404854613.27500,8,2014_Jul_08_1421,59.9365043328,SSVP5_75,001,bill,
22,0,22,0,2,0,2,0,1404854613.40900,8,2014_Jul_08_1421,59.9365043328,SSVP5_75,001,bill,
22,0,22,0,3,0,3,0,1404854613.54000,8,2014_Jul_08_1421,59.9365043328,SSVP5_75,001,bill,
22,0,22,0,4,0,4,0,1404854613.67300,8,2014_Jul_08_1421,59.9365043328,SSVP5_75,001,bill,
22,0,22,0,5,0,5,0,1404854613.80700,8,2014_Jul_08_1421,59.9365043328,SSVP5_75,001,bill,
22,0,22,0,6,0,6,0,1404854613.94000,8,2014_Jul_08_1421,59.9365043328,SSVP5_75,001,bill,
22,0,22,0,7,0,7,0,1404854614.07700,8,2014_Jul_08_1421,59.9365043328,SSVP5_75,001,bill,
22,0,22,0,8,0,8,0,1404854614.21000,8,2014_Jul_08_1421,59.9365043328,SSVP5_75,001,bill,
22,0,22,0,9,0,9,0,1404854614.34400,8,2014_Jul_08_1421,59.9365043328,SSVP5_75,001,bill,
22,0,22,0,10,0,10,0,1404854614.47700,8,2014_Jul_08_1421,59.9365043328,SSVP5_75,001,bill,
22,0,22,0,11,0,11,0,1404854614.61000,8,2014_Jul_08_1421,59.9365043328,SSVP5_75,001,bill,
22,0,22,0,12,0,12,0,1404854614.74400,8,2014_Jul_08_1421,59.9365043328,SSVP5_75,001,bill,
22,0,22,0,13,0,13,0,1404854614.87800,8,2014_Jul_08_1421,59.9365043328,SSVP5_75,001,bill,
22,0,22,0,14,0,14,0,1404854615.01100,8,2014_Jul_08_1421,59.9365043328,SSVP5_75,001,bill,
22,0,22,0,15,0,15,0,1404854615.14200,8,2014_Jul_08_1421,59.9365043328,SSVP5_75,001,bill,
22,0,22,0,16,0,16,0,1404854615.27800,8,2014_Jul_08_1421,59.9365043328,SSVP5_75,001,bill,
22,0,22,0,17,0,17,0,1404854615.41200,8,2014_Jul_08_1421,59.9365043328,SSVP5_75,001,bill,
22,0,22,0,18,0,18,0,1404854615.54200,8,2014_Jul_08_1421,59.9365043328,SSVP5_75,001,bill,
22,0,22,0,19,0,19,0,1404854615.67900,8,2014_Jul_08_1421,59.9365043328,SSVP5_75,001,bill,
22,0,22,0,20,0,20,0,1404854615.81200,8,2014_Jul_08_1421,59.9365043328,SSVP5_75,001,bill,
22,0,22,0,21,0,21,0,1404854615.94300,8,2014_Jul_08_1421,59.9365043328,SSVP5_75,001,bill,
22,0,22,0,22,0,22,0,1404854616.07700,8,2014_Jul_08_1421,59.9365043328,SSVP5_75,001,bill,
22,0,22,0,23,0,23,0,1404854616.21000,8,2014_Jul_08_1421,59.9365043328,SSVP5_75,001,bill,
22,0,22,0,24,0,24,0,1404854616.34600,8,2014_Jul_08_1421,59.9365043328,SSVP5_75,001,bill,
22,0,22,0,25,0,25,0,1404854616.48000,8,2014_Jul_08_1421,59.9365043328,SSVP5_75,001,bill,
22,0,22,0,26,0,26,0,1404854616.61000,8,2014_Jul_08_1421,59.9365043328,SSVP5_75,001,bill,
22,0,22,0,27,0,27,0,1404854616.74400,8,2014_Jul_08_1421,59.9365043328,SSVP5_75,001,bill,
22,0,22,0,28,0,28,0,1404854616.88000,8,2014_Jul_08_1421,59.9365043328,SSVP5_75,001,bill,
22,0,22,0,29,0,29,0,1404854617.01100,8,2014_Jul_08_1421,59.9365043328,SSVP5_75,001,bill,
22,0,22,0,,,,,,,2014_Jul_08_1421,59.9365043328,SSVP5_75,001,bill,
23,0,23,0,0,0,0,0,1404854619.15000,8,2014_Jul_08_1421,59.9365043328,SSVP5_75,001,bill,
23,0,23,0,1,0,1,0,1404854619.28000,8,2014_Jul_08_1421,59.9365043328,SSVP5_75,001,bill,
23,0,23,0,2,0,2,0,1404854619.41700,8,2014_Jul_08_1421,59.9365043328,SSVP5_75,001,bill,
23,0,23,0,3,0,3,0,1404854619.55000,8,2014_Jul_08_1421,59.9365043328,SSVP5_75,001,bill,
23,0,23,0,4,0,4,0,1404854619.68400,8,2014_Jul_08_1421,59.9365043328,SSVP5_75,001,bill,
23,0,23,0,5,0,5,0,1404854619.81700,8,2014_Jul_08_1421,59.9365043328,SSVP5_75,001,bill,
23,0,23,0,6,0,6,0,1404854619.95100,8,2014_Jul_08_1421,59.9365043328,SSVP5_75,001,bill,
23,0,23,0,7,0,7,0,1404854620.08100,8,2014_Jul_08_1421,59.9365043328,SSVP5_75,001,bill,
23,0,23,0,8,0,8,0,1404854620.21600,8,2014_Jul_08_1421,59.9365043328,SSVP5_75,001,bill,
23,0,23,0,9,0,9,0,1404854620.35300,8,2014_Jul_08_1421,59.9365043328,SSVP5_75,001,bill,
23,0,23,0,10,0,10,0,1404854620.48300,8,2014_Jul_08_1421,59.9365043328,SSVP5_75,001,bill,
23,0,23,0,11,0,11,0,1404854620.61700,8,2014_Jul_08_1421,59.9365043328,SSVP5_75,001,bill,
23,0,23,0,12,0,12,0,1404854620.75300,8,2014_Jul_08_1421,59.9365043328,SSVP5_75,001,bill,
23,0,23,0,13,0,13,0,1404854620.88300,8,2014_Jul_08_1421,59.9365043328,SSVP5_75,001,bill,
23,0,23,0,14,0,14,0,1404854621.02000,8,2014_Jul_08_1421,59.9365043328,SSVP5_75,001,bill,
23,0,23,0,15,0,15,0,1404854621.15100,8,2014_Jul_08_1421,59.9365043328,SSVP5_75,001,bill,
23,0,23,0,16,0,16,0,1404854621.28400,8,2014_Jul_08_1421,59.9365043328,SSVP5_75,001,bill,
23,0,23,0,17,0,17,0,1404854621.42100,8,2014_Jul_08_1421,59.9365043328,SSVP5_75,001,bill,
23,0,23,0,18,0,18,0,1404854621.55100,8,2014_Jul_08_1421,59.9365043328,SSVP5_75,001,bill,
23,0,23,0,19,0,19,0,1404854621.68800,8,2014_Jul_08_1421,59.9365043328,SSVP5_75,001,bill,
23,0,23,0,20,0,20,0,1404854621.82100,8,2014_Jul_08_1421,59.9365043328,SSVP5_75,001,bill,
23,0,23,0,21,0,21,0,1404854621.95200,8,2014_Jul_08_1421,59.9365043328,SSVP5_75,001,bill,
23,0,23,0,22,0,22,0,1404854622.08800,8,2014_Jul_08_1421,59.9365043328,SSVP5_75,001,bill,
23,0,23,0,23,0,23,0,1404854622.22100,8,2014_Jul_08_1421,59.9365043328,SSVP5_75,001,bill,
23,0,23,0,24,0,24,0,1404854622.35500,8,2014_Jul_08_1421,59.9365043328,SSVP5_75,001,bill,
23,0,23,0,25,0,25,0,1404854622.48900,8,2014_Jul_08_1421,59.9365043328,SSVP5_75,001,bill,
23,0,23,0,26,0,26,0,1404854622.62200,8,2014_Jul_08_1421,59.9365043328,SSVP5_75,001,bill,
23,0,23,0,27,0,27,0,1404854622.75600,8,2014_Jul_08_1421,59.9365043328,SSVP5_75,001,bill,
23,0,23,0,28,0,28,0,1404854622.88900,8,2014_Jul_08_1421,59.9365043328,SSVP5_75,001,bill,
23,0,23,0,29,0,29,0,1404854623.02300,8,2014_Jul_08_1421,59.9365043328,SSVP5_75,001,bill,
23,0,23,0,,,,,,,2014_Jul_08_1421,59.9365043328,SSVP5_75,001,bill,
24,0,24,0,0,0,0,0,1404854625.17000,8,2014_Jul_08_1421,59.9365043328,SSVP5_75,001,bill,
24,0,24,0,1,0,1,0,1404854625.30400,8,2014_Jul_08_1421,59.9365043328,SSVP5_75,001,bill,
24,0,24,0,2,0,2,0,1404854625.43700,8,2014_Jul_08_1421,59.9365043328,SSVP5_75,001,bill,
24,0,24,0,3,0,3,0,1404854625.57100,8,2014_Jul_08_1421,59.9365043328,SSVP5_75,001,bill,
24,0,24,0,4,0,4,0,1404854625.70400,8,2014_Jul_08_1421,59.9365043328,SSVP5_75,001,bill,
24,0,24,0,5,0,5,0,1404854625.83800,8,2014_Jul_08_1421,59.9365043328,SSVP5_75,001,bill,
24,0,24,0,6,0,6,0,1404854625.97200,8,2014_Jul_08_1421,59.9365043328,SSVP5_75,001,bill,
24,0,24,0,7,0,7,0,1404854626.10500,8,2014_Jul_08_1421,59.9365043328,SSVP5_75,001,bill,
24,0,24,0,8,0,8,0,1404854626.23800,8,2014_Jul_08_1421,59.9365043328,SSVP5_75,001,bill,
24,0,24,0,9,0,9,0,1404854626.37200,8,2014_Jul_08_1421,59.9365043328,SSVP5_75,001,bill,
24,0,24,0,10,0,10,0,1404854626.50600,8,2014_Jul_08_1421,59.9365043328,SSVP5_75,001,bill,
24,0,24,0,11,0,11,0,1404854626.63900,8,2014_Jul_08_1421,59.9365043328,SSVP5_75,001,bill,
24,0,24,0,12,0,12,0,1404854626.77200,8,2014_Jul_08_1421,59.9365043328,SSVP5_75,001,bill,
24,0,24,0,13,0,13,0,1404854626.90700,8,2014_Jul_08_1421,59.9365043328,SSVP5_75,001,bill,
24,0,24,0,14,0,14,0,1404854627.03900,8,2014_Jul_08_1421,59.9365043328,SSVP5_75,001,bill,
24,0,24,0,15,0,15,0,1404854627.17300,8,2014_Jul_08_1421,59.9365043328,SSVP5_75,001,bill,
24,0,24,0,16,0,16,0,1404854627.30600,8,2014_Jul_08_1421,59.9365043328,SSVP5_75,001,bill,
24,0,24,0,17,0,17,0,1404854627.44000,8,2014_Jul_08_1421,59.9365043328,SSVP5_75,001,bill,
24,0,24,0,18,0,18,0,1404854627.57300,8,2014_Jul_08_1421,59.9365043328,SSVP5_75,001,bill,
24,0,24,0,19,0,19,0,1404854627.70700,8,2014_Jul_08_1421,59.9365043328,SSVP5_75,001,bill,
24,0,24,0,20,0,20,0,1404854627.84000,8,2014_Jul_08_1421,59.9365043328,SSVP5_75,001,bill,
24,0,24,0,21,0,21,0,1404854627.97600,8,2014_Jul_08_1421,59.9365043328,SSVP5_75,001,bill,
24,0,24,0,22,0,22,0,1404854628.11300,8,2014_Jul_08_1421,59.9365043328,SSVP5_75,001,bill,
24,0,24,0,23,0,23,0,1404854628.24300,8,2014_Jul_08_1421,59.9365043328,SSVP5_75,001,bill,
24,0,24,0,24,0,24,0,1404854628.38000,8,2014_Jul_08_1421,59.9365043328,SSVP5_75,001,bill,
24,0,24,0,25,0,25,0,1404854628.51300,8,2014_Jul_08_1421,59.9365043328,SSVP5_75,001,bill,
24,0,24,0,26,0,26,0,1404854628.64400,8,2014_Jul_08_1421,59.9365043328,SSVP5_75,001,bill,
24,0,24,0,27,0,27,0,1404854628.78100,8,2014_Jul_08_1421,59.9365043328,SSVP5_75,001,bill,
24,0,24,0,28,0,28,0,1404854628.91100,8,2014_Jul_08_1421,59.9365043328,SSVP5_75,001,bill,
24,0,24,0,29,0,29,0,1404854629.04700,8,2014_Jul_08_1421,59.9365043328,SSVP5_75,001,bill,
24,0,24,0,,,,,,,2014_Jul_08_1421,59.9365043328,SSVP5_75,001,bill,
25,0,25,0,0,0,0,0,1404854631.19500,8,2014_Jul_08_1421,59.9365043328,SSVP5_75,001,bill,
25,0,25,0,1,0,1,0,1404854631.32800,8,2014_Jul_08_1421,59.9365043328,SSVP5_75,001,bill,
25,0,25,0,2,0,2,0,1404854631.46200,8,2014_Jul_08_1421,59.9365043328,SSVP5_75,001,bill,
25,0,25,0,3,0,3,0,1404854631.59500,8,2014_Jul_08_1421,59.9365043328,SSVP5_75,001,bill,
25,0,25,0,4,0,4,0,1404854631.72900,8,2014_Jul_08_1421,59.9365043328,SSVP5_75,001,bill,
25,0,25,0,5,0,5,0,1404854631.86200,8,2014_Jul_08_1421,59.9365043328,SSVP5_75,001,bill,
25,0,25,0,6,0,6,0,1404854631.99600,8,2014_Jul_08_1421,59.9365043328,SSVP5_75,001,bill,
25,0,25,0,7,0,7,0,1404854632.13000,8,2014_Jul_08_1421,59.9365043328,SSVP5_75,001,bill,
25,0,25,0,8,0,8,0,1404854632.26300,8,2014_Jul_08_1421,59.9365043328,SSVP5_75,001,bill,
25,0,25,0,9,0,9,0,1404854632.39700,8,2014_Jul_08_1421,59.9365043328,SSVP5_75,001,bill,
25,0,25,0,10,0,10,0,1404854632.53000,8,2014_Jul_08_1421,59.9365043328,SSVP5_75,001,bill,
25,0,25,0,11,0,11,0,1404854632.66400,8,2014_Jul_08_1421,59.9365043328,SSVP5_75,001,bill,
25,0,25,0,12,0,12,0,1404854632.79700,8,2014_Jul_08_1421,59.9365043328,SSVP5_75,001,bill,
25,0,25,0,13,0,13,0,1404854632.93100,8,2014_Jul_08_1421,59.9365043328,SSVP5_75,001,bill,
25,0,25,0,14,0,14,0,1404854633.06500,8,2014_Jul_08_1421,59.9365043328,SSVP5_75,001,bill,
25,0,25,0,15,0,15,0,1404854633.19800,8,2014_Jul_08_1421,59.9365043328,SSVP5_75,001,bill,
25,0,25,0,16,0,16,0,1404854633.33100,8,2014_Jul_08_1421,59.9365043328,SSVP5_75,001,bill,
25,0,25,0,17,0,17,0,1404854633.46500,8,2014_Jul_08_1421,59.9365043328,SSVP5_75,001,bill,
25,0,25,0,18,0,18,0,1404854633.59800,8,2014_Jul_08_1421,59.9365043328,SSVP5_75,001,bill,
25,0,25,0,19,0,19,0,1404854633.73200,8,2014_Jul_08_1421,59.9365043328,SSVP5_75,001,bill,
25,0,25,0,20,0,20,0,1404854633.86500,8,2014_Jul_08_1421,59.9365043328,SSVP5_75,001,bill,
25,0,25,0,21,0,21,0,1404854633.99800,8,2014_Jul_08_1421,59.9365043328,SSVP5_75,001,bill,
25,0,25,0,22,0,22,0,1404854634.13200,8,2014_Jul_08_1421,59.9365043328,SSVP5_75,001,bill,
25,0,25,0,23,0,23,0,1404854634.26600,8,2014_Jul_08_1421,59.9365043328,SSVP5_75,001,bill,
25,0,25,0,24,0,24,0,1404854634.40000,8,2014_Jul_08_1421,59.9365043328,SSVP5_75,001,bill,
25,0,25,0,25,0,25,0,1404854634.53300,8,2014_Jul_08_1421,59.9365043328,SSVP5_75,001,bill,
25,0,25,0,26,0,26,0,1404854634.66600,8,2014_Jul_08_1421,59.9365043328,SSVP5_75,001,bill,
25,0,25,0,27,0,27,0,1404854634.80000,8,2014_Jul_08_1421,59.9365043328,SSVP5_75,001,bill,
25,0,25,0,28,0,28,0,1404854634.93400,8,2014_Jul_08_1421,59.9365043328,SSVP5_75,001,bill,
25,0,25,0,29,0,29,0,1404854635.06700,8,2014_Jul_08_1421,59.9365043328,SSVP5_75,001,bill,
25,0,25,0,,,,,,,2014_Jul_08_1421,59.9365043328,SSVP5_75,001,bill,
26,0,26,0,0,0,0,0,1404854637.20300,8,2014_Jul_08_1421,59.9365043328,SSVP5_75,001,bill,
26,0,26,0,1,0,1,0,1404854637.33700,8,2014_Jul_08_1421,59.9365043328,SSVP5_75,001,bill,
26,0,26,0,2,0,2,0,1404854637.47000,8,2014_Jul_08_1421,59.9365043328,SSVP5_75,001,bill,
26,0,26,0,3,0,3,0,1404854637.60300,8,2014_Jul_08_1421,59.9365043328,SSVP5_75,001,bill,
26,0,26,0,4,0,4,0,1404854637.73800,8,2014_Jul_08_1421,59.9365043328,SSVP5_75,001,bill,
26,0,26,0,5,0,5,0,1404854637.87100,8,2014_Jul_08_1421,59.9365043328,SSVP5_75,001,bill,
26,0,26,0,6,0,6,0,1404854638.00500,8,2014_Jul_08_1421,59.9365043328,SSVP5_75,001,bill,
26,0,26,0,7,0,7,0,1404854638.13800,8,2014_Jul_08_1421,59.9365043328,SSVP5_75,001,bill,
26,0,26,0,8,0,8,0,1404854638.27300,8,2014_Jul_08_1421,59.9365043328,SSVP5_75,001,bill,
26,0,26,0,9,0,9,0,1404854638.40600,8,2014_Jul_08_1421,59.9365043328,SSVP5_75,001,bill,
26,0,26,0,10,0,10,0,1404854638.53900,8,2014_Jul_08_1421,59.9365043328,SSVP5_75,001,bill,
26,0,26,0,11,0,11,0,1404854638.67200,8,2014_Jul_08_1421,59.9365043328,SSVP5_75,001,bill,
26,0,26,0,12,0,12,0,1404854638.80700,8,2014_Jul_08_1421,59.9365043328,SSVP5_75,001,bill,
26,0,26,0,13,0,13,0,1404854638.94000,8,2014_Jul_08_1421,59.9365043328,SSVP5_75,001,bill,
26,0,26,0,14,0,14,0,1404854639.07300,8,2014_Jul_08_1421,59.9365043328,SSVP5_75,001,bill,
26,0,26,0,15,0,15,0,1404854639.20600,8,2014_Jul_08_1421,59.9365043328,SSVP5_75,001,bill,
26,0,26,0,16,0,16,0,1404854639.34000,8,2014_Jul_08_1421,59.9365043328,SSVP5_75,001,bill,
26,0,26,0,17,0,17,0,1404854639.47300,8,2014_Jul_08_1421,59.9365043328,SSVP5_75,001,bill,
26,0,26,0,18,0,18,0,1404854639.60700,8,2014_Jul_08_1421,59.9365043328,SSVP5_75,001,bill,
26,0,26,0,19,0,19,0,1404854639.74100,8,2014_Jul_08_1421,59.9365043328,SSVP5_75,001,bill,
26,0,26,0,20,0,20,0,1404854639.87400,8,2014_Jul_08_1421,59.9365043328,SSVP5_75,001,bill,
26,0,26,0,21,0,21,0,1404854640.00800,8,2014_Jul_08_1421,59.9365043328,SSVP5_75,001,bill,
26,0,26,0,22,0,22,0,1404854640.14100,8,2014_Jul_08_1421,59.9365043328,SSVP5_75,001,bill,
26,0,26,0,23,0,23,0,1404854640.27400,8,2014_Jul_08_1421,59.9365043328,SSVP5_75,001,bill,
26,0,26,0,24,0,24,0,1404854640.40800,8,2014_Jul_08_1421,59.9365043328,SSVP5_75,001,bill,
26,0,26,0,25,0,25,0,1404854640.54100,8,2014_Jul_08_1421,59.9365043328,SSVP5_75,001,bill,
26,0,26,0,26,0,26,0,1404854640.67600,8,2014_Jul_08_1421,59.9365043328,SSVP5_75,001,bill,
26,0,26,0,27,0,27,0,1404854640.80900,8,2014_Jul_08_1421,59.9365043328,SSVP5_75,001,bill,
26,0,26,0,28,0,28,0,1404854640.94200,8,2014_Jul_08_1421,59.9365043328,SSVP5_75,001,bill,
26,0,26,0,29,0,29,0,1404854641.07700,8,2014_Jul_08_1421,59.9365043328,SSVP5_75,001,bill,
26,0,26,0,,,,,,,2014_Jul_08_1421,59.9365043328,SSVP5_75,001,bill,
27,0,27,0,0,0,0,0,1404854643.22800,8,2014_Jul_08_1421,59.9365043328,SSVP5_75,001,bill,
27,0,27,0,1,0,1,0,1404854643.36200,8,2014_Jul_08_1421,59.9365043328,SSVP5_75,001,bill,
27,0,27,0,2,0,2,0,1404854643.49600,8,2014_Jul_08_1421,59.9365043328,SSVP5_75,001,bill,
27,0,27,0,3,0,3,0,1404854643.62900,8,2014_Jul_08_1421,59.9365043328,SSVP5_75,001,bill,
27,0,27,0,4,0,4,0,1404854643.76200,8,2014_Jul_08_1421,59.9365043328,SSVP5_75,001,bill,
27,0,27,0,5,0,5,0,1404854643.89600,8,2014_Jul_08_1421,59.9365043328,SSVP5_75,001,bill,
27,0,27,0,6,0,6,0,1404854644.02900,8,2014_Jul_08_1421,59.9365043328,SSVP5_75,001,bill,
27,0,27,0,7,0,7,0,1404854644.16300,8,2014_Jul_08_1421,59.9365043328,SSVP5_75,001,bill,
27,0,27,0,8,0,8,0,1404854644.29600,8,2014_Jul_08_1421,59.9365043328,SSVP5_75,001,bill,
27,0,27,0,9,0,9,0,1404854644.43000,8,2014_Jul_08_1421,59.9365043328,SSVP5_75,001,bill,
27,0,27,0,10,0,10,0,1404854644.56300,8,2014_Jul_08_1421,59.9365043328,SSVP5_75,001,bill,
27,0,27,0,11,0,11,0,1404854644.69800,8,2014_Jul_08_1421,59.9365043328,SSVP5_75,001,bill,
27,0,27,0,12,0,12,0,1404854644.83100,8,2014_Jul_08_1421,59.9365043328,SSVP5_75,001,bill,
27,0,27,0,13,0,13,0,1404854644.96400,8,2014_Jul_08_1421,59.9365043328,SSVP5_75,001,bill,
27,0,27,0,14,0,14,0,1404854645.09800,8,2014_Jul_08_1421,59.9365043328,SSVP5_75,001,bill,
27,0,27,0,15,0,15,0,1404854645.23100,8,2014_Jul_08_1421,59.9365043328,SSVP5_75,001,bill,
27,0,27,0,16,0,16,0,1404854645.36500,8,2014_Jul_08_1421,59.9365043328,SSVP5_75,001,bill,
27,0,27,0,17,0,17,0,1404854645.49800,8,2014_Jul_08_1421,59.9365043328,SSVP5_75,001,bill,
27,0,27,0,18,0,18,0,1404854645.63200,8,2014_Jul_08_1421,59.9365043328,SSVP5_75,001,bill,
27,0,27,0,19,0,19,0,1404854645.76500,8,2014_Jul_08_1421,59.9365043328,SSVP5_75,001,bill,
27,0,27,0,20,0,20,0,1404854645.89800,8,2014_Jul_08_1421,59.9365043328,SSVP5_75,001,bill,
27,0,27,0,21,0,21,0,1404854646.03300,8,2014_Jul_08_1421,59.9365043328,SSVP5_75,001,bill,
27,0,27,0,22,0,22,0,1404854646.16600,8,2014_Jul_08_1421,59.9365043328,SSVP5_75,001,bill,
27,0,27,0,23,0,23,0,1404854646.29900,8,2014_Jul_08_1421,59.9365043328,SSVP5_75,001,bill,
27,0,27,0,24,0,24,0,1404854646.43200,8,2014_Jul_08_1421,59.9365043328,SSVP5_75,001,bill,
27,0,27,0,25,0,25,0,1404854646.56600,8,2014_Jul_08_1421,59.9365043328,SSVP5_75,001,bill,
27,0,27,0,26,0,26,0,1404854646.69900,8,2014_Jul_08_1421,59.9365043328,SSVP5_75,001,bill,
27,0,27,0,27,0,27,0,1404854646.83300,8,2014_Jul_08_1421,59.9365043328,SSVP5_75,001,bill,
27,0,27,0,28,0,28,0,1404854646.96700,8,2014_Jul_08_1421,59.9365043328,SSVP5_75,001,bill,
27,0,27,0,29,0,29,0,1404854647.10000,8,2014_Jul_08_1421,59.9365043328,SSVP5_75,001,bill,
27,0,27,0,,,,,,,2014_Jul_08_1421,59.9365043328,SSVP5_75,001,bill,
28,0,28,0,0,0,0,0,1404854649.23600,8,2014_Jul_08_1421,59.9365043328,SSVP5_75,001,bill,
28,0,28,0,1,0,1,0,1404854649.37000,8,2014_Jul_08_1421,59.9365043328,SSVP5_75,001,bill,
28,0,28,0,2,0,2,0,1404854649.50400,8,2014_Jul_08_1421,59.9365043328,SSVP5_75,001,bill,
28,0,28,0,3,0,3,0,1404854649.63700,8,2014_Jul_08_1421,59.9365043328,SSVP5_75,001,bill,
28,0,28,0,4,0,4,0,1404854649.77000,8,2014_Jul_08_1421,59.9365043328,SSVP5_75,001,bill,
28,0,28,0,5,0,5,0,1404854649.90400,8,2014_Jul_08_1421,59.9365043328,SSVP5_75,001,bill,
28,0,28,0,6,0,6,0,1404854650.03800,8,2014_Jul_08_1421,59.9365043328,SSVP5_75,001,bill,
28,0,28,0,7,0,7,0,1404854650.17100,8,2014_Jul_08_1421,59.9365043328,SSVP5_75,001,bill,
28,0,28,0,8,0,8,0,1404854650.30400,8,2014_Jul_08_1421,59.9365043328,SSVP5_75,001,bill,
28,0,28,0,9,0,9,0,1404854650.43800,8,2014_Jul_08_1421,59.9365043328,SSVP5_75,001,bill,
28,0,28,0,10,0,10,0,1404854650.57100,8,2014_Jul_08_1421,59.9365043328,SSVP5_75,001,bill,
28,0,28,0,11,0,11,0,1404854650.70600,8,2014_Jul_08_1421,59.9365043328,SSVP5_75,001,bill,
28,0,28,0,12,0,12,0,1404854650.83900,8,2014_Jul_08_1421,59.9365043328,SSVP5_75,001,bill,
28,0,28,0,13,0,13,0,1404854650.97300,8,2014_Jul_08_1421,59.9365043328,SSVP5_75,001,bill,
28,0,28,0,14,0,14,0,1404854651.10600,8,2014_Jul_08_1421,59.9365043328,SSVP5_75,001,bill,
28,0,28,0,15,0,15,0,1404854651.23900,8,2014_Jul_08_1421,59.9365043328,SSVP5_75,001,bill,
28,0,28,0,16,0,16,0,1404854651.37300,8,2014_Jul_08_1421,59.9365043328,SSVP5_75,001,bill,
28,0,28,0,17,0,17,0,1404854651.50600,8,2014_Jul_08_1421,59.9365043328,SSVP5_75,001,bill,
28,0,28,0,18,0,18,0,1404854651.64000,8,2014_Jul_08_1421,59.9365043328,SSVP5_75,001,bill,
28,0,28,0,19,0,19,0,1404854651.77300,8,2014_Jul_08_1421,59.9365043328,SSVP5_75,001,bill,
28,0,28,0,20,0,20,0,1404854651.90700,8,2014_Jul_08_1421,59.9365043328,SSVP5_75,001,bill,
28,0,28,0,21,0,21,0,1404854652.04100,8,2014_Jul_08_1421,59.9365043328,SSVP5_75,001,bill,
28,0,28,0,22,0,22,0,1404854652.17300,8,2014_Jul_08_1421,59.9365043328,SSVP5_75,001,bill,
28,0,28,0,23,0,23,0,1404854652.30800,8,2014_Jul_08_1421,59.9365043328,SSVP5_75,001,bill,
28,0,28,0,24,0,24,0,1404854652.44100,8,2014_Jul_08_1421,59.9365043328,SSVP5_75,001,bill,
28,0,28,0,25,0,25,0,1404854652.57400,8,2014_Jul_08_1421,59.9365043328,SSVP5_75,001,bill,
28,0,28,0,26,0,26,0,1404854652.70800,8,2014_Jul_08_1421,59.9365043328,SSVP5_75,001,bill,
28,0,28,0,27,0,27,0,1404854652.84100,8,2014_Jul_08_1421,59.9365043328,SSVP5_75,001,bill,
28,0,28,0,28,0,28,0,1404854652.97500,8,2014_Jul_08_1421,59.9365043328,SSVP5_75,001,bill,
28,0,28,0,29,0,29,0,1404854653.10800,8,2014_Jul_08_1421,59.9365043328,SSVP5_75,001,bill,
28,0,28,0,,,,,,,2014_Jul_08_1421,59.9365043328,SSVP5_75,001,bill,
29,0,29,0,0,0,0,0,1404854655.24500,8,2014_Jul_08_1421,59.9365043328,SSVP5_75,001,bill,
29,0,29,0,1,0,1,0,1404854655.37900,8,2014_Jul_08_1421,59.9365043328,SSVP5_75,001,bill,
29,0,29,0,2,0,2,0,1404854655.51300,8,2014_Jul_08_1421,59.9365043328,SSVP5_75,001,bill,
29,0,29,0,3,0,3,0,1404854655.64600,8,2014_Jul_08_1421,59.9365043328,SSVP5_75,001,bill,
29,0,29,0,4,0,4,0,1404854655.77900,8,2014_Jul_08_1421,59.9365043328,SSVP5_75,001,bill,
29,0,29,0,5,0,5,0,1404854655.91200,8,2014_Jul_08_1421,59.9365043328,SSVP5_75,001,bill,
29,0,29,0,6,0,6,0,1404854656.04700,8,2014_Jul_08_1421,59.9365043328,SSVP5_75,001,bill,
29,0,29,0,7,0,7,0,1404854656.18000,8,2014_Jul_08_1421,59.9365043328,SSVP5_75,001,bill,
29,0,29,0,8,0,8,0,1404854656.31300,8,2014_Jul_08_1421,59.9365043328,SSVP5_75,001,bill,
29,0,29,0,9,0,9,0,1404854656.44700,8,2014_Jul_08_1421,59.9365043328,SSVP5_75,001,bill,
29,0,29,0,10,0,10,0,1404854656.58000,8,2014_Jul_08_1421,59.9365043328,SSVP5_75,001,bill,
29,0,29,0,11,0,11,0,1404854656.71400,8,2014_Jul_08_1421,59.9365043328,SSVP5_75,001,bill,
29,0,29,0,12,0,12,0,1404854656.84800,8,2014_Jul_08_1421,59.9365043328,SSVP5_75,001,bill,
29,0,29,0,13,0,13,0,1404854656.98100,8,2014_Jul_08_1421,59.9365043328,SSVP5_75,001,bill,
29,0,29,0,14,0,14,0,1404854657.11400,8,2014_Jul_08_1421,59.9365043328,SSVP5_75,001,bill,
29,0,29,0,15,0,15,0,1404854657.24800,8,2014_Jul_08_1421,59.9365043328,SSVP5_75,001,bill,
29,0,29,0,16,0,16,0,1404854657.38200,8,2014_Jul_08_1421,59.9365043328,SSVP5_75,001,bill,
29,0,29,0,17,0,17,0,1404854657.51500,8,2014_Jul_08_1421,59.9365043328,SSVP5_75,001,bill,
29,0,29,0,18,0,18,0,1404854657.64800,8,2014_Jul_08_1421,59.9365043328,SSVP5_75,001,bill,
29,0,29,0,19,0,19,0,1404854657.78200,8,2014_Jul_08_1421,59.9365043328,SSVP5_75,001,bill,
29,0,29,0,20,0,20,0,1404854657.91600,8,2014_Jul_08_1421,59.9365043328,SSVP5_75,001,bill,
29,0,29,0,21,0,21,0,1404854658.04900,8,2014_Jul_08_1421,59.9365043328,SSVP5_75,001,bill,
29,0,29,0,22,0,22,0,1404854658.18200,8,2014_Jul_08_1421,59.9365043328,SSVP5_75,001,bill,
29,0,29,0,23,0,23,0,1404854658.31600,8,2014_Jul_08_1421,59.9365043328,SSVP5_75,001,bill,
29,0,29,0,24,0,24,0,1404854658.45000,8,2014_Jul_08_1421,59.9365043328,SSVP5_75,001,bill,
29,0,29,0,25,0,25,0,1404854658.58300,8,2014_Jul_08_1421,59.9365043328,SSVP5_75,001,bill,
29,0,29,0,26,0,26,0,1404854658.71700,8,2014_Jul_08_1421,59.9365043328,SSVP5_75,001,bill,
29,0,29,0,27,0,27,0,1404854658.85100,8,2014_Jul_08_1421,59.9365043328,SSVP5_75,001,bill,
29,0,29,0,28,0,28,0,1404854658.98400,8,2014_Jul_08_1421,59.9365043328,SSVP5_75,001,bill,
29,0,29,0,29,0,29,0,1404854659.11700,8,2014_Jul_08_1421,59.9365043328,SSVP5_75,001,bill,
29,0,29,0,,,,,,,2014_Jul_08_1421,59.9365043328,SSVP5_75,001,bill,
30,0,30,0,0,0,0,0,1404854661.25300,8,2014_Jul_08_1421,59.9365043328,SSVP5_75,001,bill,
30,0,30,0,1,0,1,0,1404854661.38700,8,2014_Jul_08_1421,59.9365043328,SSVP5_75,001,bill,
30,0,30,0,2,0,2,0,1404854661.52000,8,2014_Jul_08_1421,59.9365043328,SSVP5_75,001,bill,
30,0,30,0,3,0,3,0,1404854661.65400,8,2014_Jul_08_1421,59.9365043328,SSVP5_75,001,bill,
30,0,30,0,4,0,4,0,1404854661.78700,8,2014_Jul_08_1421,59.9365043328,SSVP5_75,001,bill,
30,0,30,0,5,0,5,0,1404854661.92100,8,2014_Jul_08_1421,59.9365043328,SSVP5_75,001,bill,
30,0,30,0,6,0,6,0,1404854662.05400,8,2014_Jul_08_1421,59.9365043328,SSVP5_75,001,bill,
30,0,30,0,7,0,7,0,1404854662.18800,8,2014_Jul_08_1421,59.9365043328,SSVP5_75,001,bill,
30,0,30,0,8,0,8,0,1404854662.32200,8,2014_Jul_08_1421,59.9365043328,SSVP5_75,001,bill,
30,0,30,0,9,0,9,0,1404854662.45500,8,2014_Jul_08_1421,59.9365043328,SSVP5_75,001,bill,
30,0,30,0,10,0,10,0,1404854662.58800,8,2014_Jul_08_1421,59.9365043328,SSVP5_75,001,bill,
30,0,30,0,11,0,11,0,1404854662.72200,8,2014_Jul_08_1421,59.9365043328,SSVP5_75,001,bill,
30,0,30,0,12,0,12,0,1404854662.85600,8,2014_Jul_08_1421,59.9365043328,SSVP5_75,001,bill,
30,0,30,0,13,0,13,0,1404854662.98900,8,2014_Jul_08_1421,59.9365043328,SSVP5_75,001,bill,
30,0,30,0,14,0,14,0,1404854663.12300,8,2014_Jul_08_1421,59.9365043328,SSVP5_75,001,bill,
30,0,30,0,15,0,15,0,1404854663.25600,8,2014_Jul_08_1421,59.9365043328,SSVP5_75,001,bill,
30,0,30,0,16,0,16,0,1404854663.39000,8,2014_Jul_08_1421,59.9365043328,SSVP5_75,001,bill,
30,0,30,0,17,0,17,0,1404854663.52300,8,2014_Jul_08_1421,59.9365043328,SSVP5_75,001,bill,
30,0,30,0,18,0,18,0,1404854663.65600,8,2014_Jul_08_1421,59.9365043328,SSVP5_75,001,bill,
30,0,30,0,19,0,19,0,1404854663.79000,8,2014_Jul_08_1421,59.9365043328,SSVP5_75,001,bill,
30,0,30,0,20,0,20,0,1404854663.92300,8,2014_Jul_08_1421,59.9365043328,SSVP5_75,001,bill,
30,0,30,0,21,0,21,0,1404854664.05700,8,2014_Jul_08_1421,59.9365043328,SSVP5_75,001,bill,
30,0,30,0,22,0,22,0,1404854664.19100,8,2014_Jul_08_1421,59.9365043328,SSVP5_75,001,bill,
30,0,30,0,23,0,23,0,1404854664.32400,8,2014_Jul_08_1421,59.9365043328,SSVP5_75,001,bill,
30,0,30,0,24,0,24,0,1404854664.45800,8,2014_Jul_08_1421,59.9365043328,SSVP5_75,001,bill,
30,0,30,0,25,0,25,0,1404854664.59100,8,2014_Jul_08_1421,59.9365043328,SSVP5_75,001,bill,
30,0,30,0,26,0,26,0,1404854664.72400,8,2014_Jul_08_1421,59.9365043328,SSVP5_75,001,bill,
30,0,30,0,27,0,27,0,1404854664.85800,8,2014_Jul_08_1421,59.9365043328,SSVP5_75,001,bill,
30,0,30,0,28,0,28,0,1404854664.99200,8,2014_Jul_08_1421,59.9365043328,SSVP5_75,001,bill,
30,0,30,0,29,0,29,0,1404854665.12500,8,2014_Jul_08_1421,59.9365043328,SSVP5_75,001,bill,
30,0,30,0,,,,,,,2014_Jul_08_1421,59.9365043328,SSVP5_75,001,bill,
31,0,31,0,0,0,0,0,1404854667.26100,8,2014_Jul_08_1421,59.9365043328,SSVP5_75,001,bill,
31,0,31,0,1,0,1,0,1404854667.39500,8,2014_Jul_08_1421,59.9365043328,SSVP5_75,001,bill,
31,0,31,0,2,0,2,0,1404854667.52800,8,2014_Jul_08_1421,59.9365043328,SSVP5_75,001,bill,
31,0,31,0,3,0,3,0,1404854667.66200,8,2014_Jul_08_1421,59.9365043328,SSVP5_75,001,bill,
31,0,31,0,4,0,4,0,1404854667.79500,8,2014_Jul_08_1421,59.9365043328,SSVP5_75,001,bill,
31,0,31,0,5,0,5,0,1404854667.92900,8,2014_Jul_08_1421,59.9365043328,SSVP5_75,001,bill,
31,0,31,0,6,0,6,0,1404854668.06200,8,2014_Jul_08_1421,59.9365043328,SSVP5_75,001,bill,
31,0,31,0,7,0,7,0,1404854668.19600,8,2014_Jul_08_1421,59.9365043328,SSVP5_75,001,bill,
31,0,31,0,8,0,8,0,1404854668.32900,8,2014_Jul_08_1421,59.9365043328,SSVP5_75,001,bill,
31,0,31,0,9,0,9,0,1404854668.46300,8,2014_Jul_08_1421,59.9365043328,SSVP5_75,001,bill,
31,0,31,0,10,0,10,0,1404854668.59600,8,2014_Jul_08_1421,59.9365043328,SSVP5_75,001,bill,
31,0,31,0,11,0,11,0,1404854668.73000,8,2014_Jul_08_1421,59.9365043328,SSVP5_75,001,bill,
31,0,31,0,12,0,12,0,1404854668.86300,8,2014_Jul_08_1421,59.9365043328,SSVP5_75,001,bill,
31,0,31,0,13,0,13,0,1404854668.99700,8,2014_Jul_08_1421,59.9365043328,SSVP5_75,001,bill,
31,0,31,0,14,0,14,0,1404854669.13100,8,2014_Jul_08_1421,59.9365043328,SSVP5_75,001,bill,
31,0,31,0,15,0,15,0,1404854669.26400,8,2014_Jul_08_1421,59.9365043328,SSVP5_75,001,bill,
31,0,31,0,16,0,16,0,1404854669.39700,8,2014_Jul_08_1421,59.9365043328,SSVP5_75,001,bill,
31,0,31,0,17,0,17,0,1404854669.53100,8,2014_Jul_08_1421,59.9365043328,SSVP5_75,001,bill,
31,0,31,0,18,0,18,0,1404854669.66500,8,2014_Jul_08_1421,59.9365043328,SSVP5_75,001,bill,
31,0,31,0,19,0,19,0,1404854669.79800,8,2014_Jul_08_1421,59.9365043328,SSVP5_75,001,bill,
31,0,31,0,20,0,20,0,1404854669.93200,8,2014_Jul_08_1421,59.9365043328,SSVP5_75,001,bill,
31,0,31,0,21,0,21,0,1404854670.06500,8,2014_Jul_08_1421,59.9365043328,SSVP5_75,001,bill,
31,0,31,0,22,0,22,0,1404854670.19800,8,2014_Jul_08_1421,59.9365043328,SSVP5_75,001,bill,
31,0,31,0,23,0,23,0,1404854670.33200,8,2014_Jul_08_1421,59.9365043328,SSVP5_75,001,bill,
31,0,31,0,24,0,24,0,1404854670.46500,8,2014_Jul_08_1421,59.9365043328,SSVP5_75,001,bill,
31,0,31,0,25,0,25,0,1404854670.59900,8,2014_Jul_08_1421,59.9365043328,SSVP5_75,001,bill,
31,0,31,0,26,0,26,0,1404854670.73300,8,2014_Jul_08_1421,59.9365043328,SSVP5_75,001,bill,
31,0,31,0,27,0,27,0,1404854670.86600,8,2014_Jul_08_1421,59.9365043328,SSVP5_75,001,bill,
31,0,31,0,28,0,28,0,1404854670.99900,8,2014_Jul_08_1421,59.9365043328,SSVP5_75,001,bill,
31,0,31,0,29,0,29,0,1404854671.13300,8,2014_Jul_08_1421,59.9365043328,SSVP5_75,001,bill,
31,0,31,0,,,,,,,2014_Jul_08_1421,59.9365043328,SSVP5_75,001,bill,
32,0,32,0,0,0,0,0,1404854673.27200,8,2014_Jul_08_1421,59.9365043328,SSVP5_75,001,bill,
32,0,32,0,1,0,1,0,1404854673.40900,8,2014_Jul_08_1421,59.9365043328,SSVP5_75,001,bill,
32,0,32,0,2,0,2,0,1404854673.53900,8,2014_Jul_08_1421,59.9365043328,SSVP5_75,001,bill,
32,0,32,0,3,0,3,0,1404854673.67300,8,2014_Jul_08_1421,59.9365043328,SSVP5_75,001,bill,
32,0,32,0,4,0,4,0,1404854673.80900,8,2014_Jul_08_1421,59.9365043328,SSVP5_75,001,bill,
32,0,32,0,5,0,5,0,1404854673.94000,8,2014_Jul_08_1421,59.9365043328,SSVP5_75,001,bill,
32,0,32,0,6,0,6,0,1404854674.07600,8,2014_Jul_08_1421,59.9365043328,SSVP5_75,001,bill,
32,0,32,0,7,0,7,0,1404854674.21000,8,2014_Jul_08_1421,59.9365043328,SSVP5_75,001,bill,
32,0,32,0,8,0,8,0,1404854674.34300,8,2014_Jul_08_1421,59.9365043328,SSVP5_75,001,bill,
32,0,32,0,9,0,9,0,1404854674.47700,8,2014_Jul_08_1421,59.9365043328,SSVP5_75,001,bill,
32,0,32,0,10,0,10,0,1404854674.60800,8,2014_Jul_08_1421,59.9365043328,SSVP5_75,001,bill,
32,0,32,0,11,0,11,0,1404854674.74400,8,2014_Jul_08_1421,59.9365043328,SSVP5_75,001,bill,
32,0,32,0,12,0,12,0,1404854674.87700,8,2014_Jul_08_1421,59.9365043328,SSVP5_75,001,bill,
32,0,32,0,13,0,13,0,1404854675.01100,8,2014_Jul_08_1421,59.9365043328,SSVP5_75,001,bill,
32,0,32,0,14,0,14,0,1404854675.14400,8,2014_Jul_08_1421,59.9365043328,SSVP5_75,001,bill,
32,0,32,0,15,0,15,0,1404854675.27800,8,2014_Jul_08_1421,59.9365043328,SSVP5_75,001,bill,
32,0,32,0,16,0,16,0,1404854675.41200,8,2014_Jul_08_1421,59.9365043328,SSVP5_75,001,bill,
32,0,32,0,17,0,17,0,1404854675.54200,8,2014_Jul_08_1421,59.9365043328,SSVP5_75,001,bill,
32,0,32,0,18,0,18,0,1404854675.67800,8,2014_Jul_08_1421,59.9365043328,SSVP5_75,001,bill,
32,0,32,0,19,0,19,0,1404854675.81200,8,2014_Jul_08_1421,59.9365043328,SSVP5_75,001,bill,
32,0,32,0,20,0,20,0,1404854675.94200,8,2014_Jul_08_1421,59.9365043328,SSVP5_75,001,bill,
32,0,32,0,21,0,21,0,1404854676.07900,8,2014_Jul_08_1421,59.9365043328,SSVP5_75,001,bill,
32,0,32,0,22,0,22,0,1404854676.21000,8,2014_Jul_08_1421,59.9365043328,SSVP5_75,001,bill,
32,0,32,0,23,0,23,0,1404854676.34600,8,2014_Jul_08_1421,59.9365043328,SSVP5_75,001,bill,
32,0,32,0,24,0,24,0,1404854676.47900,8,2014_Jul_08_1421,59.9365043328,SSVP5_75,001,bill,
32,0,32,0,25,0,25,0,1404854676.61000,8,2014_Jul_08_1421,59.9365043328,SSVP5_75,001,bill,
32,0,32,0,26,0,26,0,1404854676.74700,8,2014_Jul_08_1421,59.9365043328,SSVP5_75,001,bill,
32,0,32,0,27,0,27,0,1404854676.87700,8,2014_Jul_08_1421,59.9365043328,SSVP5_75,001,bill,
32,0,32,0,28,0,28,0,1404854677.01400,8,2014_Jul_08_1421,59.9365043328,SSVP5_75,001,bill,
32,0,32,0,29,0,29,0,1404854677.14400,8,2014_Jul_08_1421,59.9365043328,SSVP5_75,001,bill,
32,0,32,0,,,,,,,2014_Jul_08_1421,59.9365043328,SSVP5_75,001,bill,
33,0,33,0,0,0,0,0,1404854679.29500,8,2014_Jul_08_1421,59.9365043328,SSVP5_75,001,bill,
33,0,33,0,1,0,1,0,1404854679.42800,8,2014_Jul_08_1421,59.9365043328,SSVP5_75,001,bill,
33,0,33,0,2,0,2,0,1404854679.56200,8,2014_Jul_08_1421,59.9365043328,SSVP5_75,001,bill,
33,0,33,0,3,0,3,0,1404854679.69600,8,2014_Jul_08_1421,59.9365043328,SSVP5_75,001,bill,
33,0,33,0,4,0,4,0,1404854679.82900,8,2014_Jul_08_1421,59.9365043328,SSVP5_75,001,bill,
33,0,33,0,5,0,5,0,1404854679.96200,8,2014_Jul_08_1421,59.9365043328,SSVP5_75,001,bill,
33,0,33,0,6,0,6,0,1404854680.09600,8,2014_Jul_08_1421,59.9365043328,SSVP5_75,001,bill,
33,0,33,0,7,0,7,0,1404854680.22900,8,2014_Jul_08_1421,59.9365043328,SSVP5_75,001,bill,
33,0,33,0,8,0,8,0,1404854680.36300,8,2014_Jul_08_1421,59.9365043328,SSVP5_75,001,bill,
33,0,33,0,9,0,9,0,1404854680.49600,8,2014_Jul_08_1421,59.9365043328,SSVP5_75,001,bill,
33,0,33,0,10,0,10,0,1404854680.63000,8,2014_Jul_08_1421,59.9365043328,SSVP5_75,001,bill,
33,0,33,0,11,0,11,0,1404854680.76400,8,2014_Jul_08_1421,59.9365043328,SSVP5_75,001,bill,
33,0,33,0,12,0,12,0,1404854680.89700,8,2014_Jul_08_1421,59.9365043328,SSVP5_75,001,bill,
33,0,33,0,13,0,13,0,1404854681.03000,8,2014_Jul_08_1421,59.9365043328,SSVP5_75,001,bill,
33,0,33,0,14,0,14,0,1404854681.16400,8,2014_Jul_08_1421,59.9365043328,SSVP5_75,001,bill,
33,0,33,0,15,0,15,0,1404854681.29800,8,2014_Jul_08_1421,59.9365043328,SSVP5_75,001,bill,
33,0,33,0,16,0,16,0,1404854681.43100,8,2014_Jul_08_1421,59.9365043328,SSVP5_75,001,bill,
33,0,33,0,17,0,17,0,1404854681.56400,8,2014_Jul_08_1421,59.9365043328,SSVP5_75,001,bill,
33,0,33,0,18,0,18,0,1404854681.69800,8,2014_Jul_08_1421,59.9365043328,SSVP5_75,001,bill,
33,0,33,0,19,0,19,0,1404854681.83200,8,2014_Jul_08_1421,59.9365043328,SSVP5_75,001,bill,
33,0,33,0,20,0,20,0,1404854681.96500,8,2014_Jul_08_1421,59.9365043328,SSVP5_75,001,bill,
33,0,33,0,21,0,21,0,1404854682.09800,8,2014_Jul_08_1421,59.9365043328,SSVP5_75,001,bill,
33,0,33,0,22,0,22,0,1404854682.23200,8,2014_Jul_08_1421,59.9365043328,SSVP5_75,001,bill,
33,0,33,0,23,0,23,0,1404854682.36600,8,2014_Jul_08_1421,59.9365043328,SSVP5_75,001,bill,
33,0,33,0,24,0,24,0,1404854682.49900,8,2014_Jul_08_1421,59.9365043328,SSVP5_75,001,bill,
33,0,33,0,25,0,25,0,1404854682.63300,8,2014_Jul_08_1421,59.9365043328,SSVP5_75,001,bill,
33,0,33,0,26,0,26,0,1404854682.76600,8,2014_Jul_08_1421,59.9365043328,SSVP5_75,001,bill,
33,0,33,0,27,0,27,0,1404854682.89900,8,2014_Jul_08_1421,59.9365043328,SSVP5_75,001,bill,
33,0,33,0,28,0,28,0,1404854683.03300,8,2014_Jul_08_1421,59.9365043328,SSVP5_75,001,bill,
33,0,33,0,29,0,29,0,1404854683.16600,8,2014_Jul_08_1421,59.9365043328,SSVP5_75,001,bill,
33,0,33,0,,,,,,,2014_Jul_08_1421,59.9365043328,SSVP5_75,001,bill,
34,0,34,0,0,0,0,0,1404854685.30300,8,2014_Jul_08_1421,59.9365043328,SSVP5_75,001,bill,
34,0,34,0,1,0,1,0,1404854685.43600,8,2014_Jul_08_1421,59.9365043328,SSVP5_75,001,bill,
34,0,34,0,2,0,2,0,1404854685.57000,8,2014_Jul_08_1421,59.9365043328,SSVP5_75,001,bill,
34,0,34,0,3,0,3,0,1404854685.70400,8,2014_Jul_08_1421,59.9365043328,SSVP5_75,001,bill,
34,0,34,0,4,0,4,0,1404854685.83800,8,2014_Jul_08_1421,59.9365043328,SSVP5_75,001,bill,
34,0,34,0,5,0,5,0,1404854685.97000,8,2014_Jul_08_1421,59.9365043328,SSVP5_75,001,bill,
34,0,34,0,6,0,6,0,1404854686.10400,8,2014_Jul_08_1421,59.9365043328,SSVP5_75,001,bill,
34,0,34,0,7,0,7,0,1404854686.23700,8,2014_Jul_08_1421,59.9365043328,SSVP5_75,001,bill,
34,0,34,0,8,0,8,0,1404854686.37100,8,2014_Jul_08_1421,59.9365043328,SSVP5_75,001,bill,
34,0,34,0,9,0,9,0,1404854686.50400,8,2014_Jul_08_1421,59.9365043328,SSVP5_75,001,bill,
34,0,34,0,10,0,10,0,1404854686.63800,8,2014_Jul_08_1421,59.9365043328,SSVP5_75,001,bill,
34,0,34,0,11,0,11,0,1404854686.77100,8,2014_Jul_08_1421,59.9365043328,SSVP5_75,001,bill,
34,0,34,0,12,0,12,0,1404854686.90400,8,2014_Jul_08_1421,59.9365043328,SSVP5_75,001,bill,
34,0,34,0,13,0,13,0,1404854687.03900,8,2014_Jul_08_1421,59.9365043328,SSVP5_75,001,bill,
34,0,34,0,14,0,14,0,1404854687.17200,8,2014_Jul_08_1421,59.9365043328,SSVP5_75,001,bill,
34,0,34,0,15,0,15,0,1404854687.30600,8,2014_Jul_08_1421,59.9365043328,SSVP5_75,001,bill,
34,0,34,0,16,0,16,0,1404854687.43900,8,2014_Jul_08_1421,59.9365043328,SSVP5_75,001,bill,
34,0,34,0,17,0,17,0,1404854687.57200,8,2014_Jul_08_1421,59.9365043328,SSVP5_75,001,bill,
34,0,34,0,18,0,18,0,1404854687.70700,8,2014_Jul_08_1421,59.9365043328,SSVP5_75,001,bill,
34,0,34,0,19,0,19,0,1404854687.83900,8,2014_Jul_08_1421,59.9365043328,SSVP5_75,001,bill,
34,0,34,0,20,0,20,0,1404854687.97500,8,2014_Jul_08_1421,59.9365043328,SSVP5_75,001,bill,
34,0,34,0,21,0,21,0,1404854688.11100,8,2014_Jul_08_1421,59.9365043328,SSVP5_75,001,bill,
34,0,34,0,22,0,22,0,1404854688.24200,8,2014_Jul_08_1421,59.9365043328,SSVP5_75,001,bill,
34,0,34,0,23,0,23,0,1404854688.37900,8,2014_Jul_08_1421,59.9365043328,SSVP5_75,001,bill,
34,0,34,0,24,0,24,0,1404854688.50900,8,2014_Jul_08_1421,59.9365043328,SSVP5_75,001,bill,
34,0,34,0,25,0,25,0,1404854688.64500,8,2014_Jul_08_1421,59.9365043328,SSVP5_75,001,bill,
34,0,34,0,26,0,26,0,1404854688.77900,8,2014_Jul_08_1421,59.9365043328,SSVP5_75,001,bill,
34,0,34,0,27,0,27,0,1404854688.91200,8,2014_Jul_08_1421,59.9365043328,SSVP5_75,001,bill,
34,0,34,0,28,0,28,0,1404854689.04600,8,2014_Jul_08_1421,59.9365043328,SSVP5_75,001,bill,
34,0,34,0,29,0,29,0,1404854689.17900,8,2014_Jul_08_1421,59.9365043328,SSVP5_75,001,bill,
34,0,34,0,,,,,,,2014_Jul_08_1421,59.9365043328,SSVP5_75,001,bill,
35,0,35,0,0,0,0,0,1404854691.32800,8,2014_Jul_08_1421,59.9365043328,SSVP5_75,001,bill,
35,0,35,0,1,0,1,0,1404854691.46200,8,2014_Jul_08_1421,59.9365043328,SSVP5_75,001,bill,
35,0,35,0,2,0,2,0,1404854691.59500,8,2014_Jul_08_1421,59.9365043328,SSVP5_75,001,bill,
35,0,35,0,3,0,3,0,1404854691.72900,8,2014_Jul_08_1421,59.9365043328,SSVP5_75,001,bill,
35,0,35,0,4,0,4,0,1404854691.86200,8,2014_Jul_08_1421,59.9365043328,SSVP5_75,001,bill,
35,0,35,0,5,0,5,0,1404854691.99600,8,2014_Jul_08_1421,59.9365043328,SSVP5_75,001,bill,
35,0,35,0,6,0,6,0,1404854692.12900,8,2014_Jul_08_1421,59.9365043328,SSVP5_75,001,bill,
35,0,35,0,7,0,7,0,1404854692.26300,8,2014_Jul_08_1421,59.9365043328,SSVP5_75,001,bill,
35,0,35,0,8,0,8,0,1404854692.39700,8,2014_Jul_08_1421,59.9365043328,SSVP5_75,001,bill,
35,0,35,0,9,0,9,0,1404854692.53000,8,2014_Jul_08_1421,59.9365043328,SSVP5_75,001,bill,
35,0,35,0,10,0,10,0,1404854692.66400,8,2014_Jul_08_1421,59.9365043328,SSVP5_75,001,bill,
35,0,35,0,11,0,11,0,1404854692.79700,8,2014_Jul_08_1421,59.9365043328,SSVP5_75,001,bill,
35,0,35,0,12,0,12,0,1404854692.93000,8,2014_Jul_08_1421,59.9365043328,SSVP5_75,001,bill,
35,0,35,0,13,0,13,0,1404854693.06400,8,2014_Jul_08_1421,59.9365043328,SSVP5_75,001,bill,
35,0,35,0,14,0,14,0,1404854693.19700,8,2014_Jul_08_1421,59.9365043328,SSVP5_75,001,bill,
35,0,35,0,15,0,15,0,1404854693.33100,8,2014_Jul_08_1421,59.9365043328,SSVP5_75,001,bill,
35,0,35,0,16,0,16,0,1404854693.46400,8,2014_Jul_08_1421,59.9365043328,SSVP5_75,001,bill,
35,0,35,0,17,0,17,0,1404854693.59800,8,2014_Jul_08_1421,59.9365043328,SSVP5_75,001,bill,
35,0,35,0,18,0,18,0,1404854693.73100,8,2014_Jul_08_1421,59.9365043328,SSVP5_75,001,bill,
35,0,35,0,19,0,19,0,1404854693.86500,8,2014_Jul_08_1421,59.9365043328,SSVP5_75,001,bill,
35,0,35,0,20,0,20,0,1404854693.99900,8,2014_Jul_08_1421,59.9365043328,SSVP5_75,001,bill,
35,0,35,0,21,0,21,0,1404854694.13200,8,2014_Jul_08_1421,59.9365043328,SSVP5_75,001,bill,
35,0,35,0,22,0,22,0,1404854694.26500,8,2014_Jul_08_1421,59.9365043328,SSVP5_75,001,bill,
35,0,35,0,23,0,23,0,1404854694.39900,8,2014_Jul_08_1421,59.9365043328,SSVP5_75,001,bill,
35,0,35,0,24,0,24,0,1404854694.53200,8,2014_Jul_08_1421,59.9365043328,SSVP5_75,001,bill,
35,0,35,0,25,0,25,0,1404854694.66600,8,2014_Jul_08_1421,59.9365043328,SSVP5_75,001,bill,
35,0,35,0,26,0,26,0,1404854694.79900,8,2014_Jul_08_1421,59.9365043328,SSVP5_75,001,bill,
35,0,35,0,27,0,27,0,1404854694.93300,8,2014_Jul_08_1421,59.9365043328,SSVP5_75,001,bill,
35,0,35,0,28,0,28,0,1404854695.06600,8,2014_Jul_08_1421,59.9365043328,SSVP5_75,001,bill,
35,0,35,0,29,0,29,0,1404854695.20000,8,2014_Jul_08_1421,59.9365043328,SSVP5_75,001,bill,
35,0,35,0,,,,,,,2014_Jul_08_1421,59.9365043328,SSVP5_75,001,bill,
36,0,36,0,0,0,0,0,1404854697.33600,8,2014_Jul_08_1421,59.9365043328,SSVP5_75,001,bill,
36,0,36,0,1,0,1,0,1404854697.47000,8,2014_Jul_08_1421,59.9365043328,SSVP5_75,001,bill,
36,0,36,0,2,0,2,0,1404854697.60300,8,2014_Jul_08_1421,59.9365043328,SSVP5_75,001,bill,
36,0,36,0,3,0,3,0,1404854697.73700,8,2014_Jul_08_1421,59.9365043328,SSVP5_75,001,bill,
36,0,36,0,4,0,4,0,1404854697.87000,8,2014_Jul_08_1421,59.9365043328,SSVP5_75,001,bill,
36,0,36,0,5,0,5,0,1404854698.00300,8,2014_Jul_08_1421,59.9365043328,SSVP5_75,001,bill,
36,0,36,0,6,0,6,0,1404854698.13700,8,2014_Jul_08_1421,59.9365043328,SSVP5_75,001,bill,
36,0,36,0,7,0,7,0,1404854698.27100,8,2014_Jul_08_1421,59.9365043328,SSVP5_75,001,bill,
36,0,36,0,8,0,8,0,1404854698.40400,8,2014_Jul_08_1421,59.9365043328,SSVP5_75,001,bill,
36,0,36,0,9,0,9,0,1404854698.53800,8,2014_Jul_08_1421,59.9365043328,SSVP5_75,001,bill,
36,0,36,0,10,0,10,0,1404854698.67200,8,2014_Jul_08_1421,59.9365043328,SSVP5_75,001,bill,
36,0,36,0,11,0,11,0,1404854698.80500,8,2014_Jul_08_1421,59.9365043328,SSVP5_75,001,bill,
36,0,36,0,12,0,12,0,1404854698.93800,8,2014_Jul_08_1421,59.9365043328,SSVP5_75,001,bill,
36,0,36,0,13,0,13,0,1404854699.07200,8,2014_Jul_08_1421,59.9365043328,SSVP5_75,001,bill,
36,0,36,0,14,0,14,0,1404854699.20500,8,2014_Jul_08_1421,59.9365043328,SSVP5_75,001,bill,
36,0,36,0,15,0,15,0,1404854699.33900,8,2014_Jul_08_1421,59.9365043328,SSVP5_75,001,bill,
36,0,36,0,16,0,16,0,1404854699.47200,8,2014_Jul_08_1421,59.9365043328,SSVP5_75,001,bill,
36,0,36,0,17,0,17,0,1404854699.60600,8,2014_Jul_08_1421,59.9365043328,SSVP5_75,001,bill,
36,0,36,0,18,0,18,0,1404854699.74000,8,2014_Jul_08_1421,59.9365043328,SSVP5_75,001,bill,
36,0,36,0,19,0,19,0,1404854699.87300,8,2014_Jul_08_1421,59.9365043328,SSVP5_75,001,bill,
36,0,36,0,20,0,20,0,1404854700.00600,8,2014_Jul_08_1421,59.9365043328,SSVP5_75,001,bill,
36,0,36,0,21,0,21,0,1404854700.14000,8,2014_Jul_08_1421,59.9365043328,SSVP5_75,001,bill,
36,0,36,0,22,0,22,0,1404854700.27300,8,2014_Jul_08_1421,59.9365043328,SSVP5_75,001,bill,
36,0,36,0,23,0,23,0,1404854700.40700,8,2014_Jul_08_1421,59.9365043328,SSVP5_75,001,bill,
36,0,36,0,24,0,24,0,1404854700.54000,8,2014_Jul_08_1421,59.9365043328,SSVP5_75,001,bill,
36,0,36,0,25,0,25,0,1404854700.67400,8,2014_Jul_08_1421,59.9365043328,SSVP5_75,001,bill,
36,0,36,0,26,0,26,0,1404854700.80700,8,2014_Jul_08_1421,59.9365043328,SSVP5_75,001,bill,
36,0,36,0,27,0,27,0,1404854700.94100,8,2014_Jul_08_1421,59.9365043328,SSVP5_75,001,bill,
