trials_120.thisRepN,trials_120.thisTrialN,trials_120.thisN,trials_120.thisIndex,withinATrial_fill_4_sec.thisRepN,withinATrial_fill_4_sec.thisTrialN,withinATrial_fill_4_sec.thisN,withinATrial_fill_4_sec.thisIndex,FrameTimeStamps,frameNumber,date,frameRate,expName,session,participant,
0,0,0,0,0,0,0,0,1404857053.61400,5,2014_Jul_08_1503,None,SSVP5_75,001,bill,
0,0,0,0,1,0,1,0,1404857053.74300,5,2014_Jul_08_1503,None,SSVP5_75,001,bill,
0,0,0,0,2,0,2,0,1404857053.86700,5,2014_Jul_08_1503,None,SSVP5_75,001,bill,
0,0,0,0,3,0,3,0,1404857053.99100,5,2014_Jul_08_1503,None,SSVP5_75,001,bill,
0,0,0,0,4,0,4,0,1404857054.11600,5,2014_Jul_08_1503,None,SSVP5_75,001,bill,
0,0,0,0,5,0,5,0,1404857054.24400,5,2014_Jul_08_1503,None,SSVP5_75,001,bill,
0,0,0,0,6,0,6,0,1404857054.37300,5,2014_Jul_08_1503,None,SSVP5_75,001,bill,
0,0,0,0,7,0,7,0,1404857054.50700,5,2014_Jul_08_1503,None,SSVP5_75,001,bill,
0,0,0,0,8,0,8,0,1404857054.63700,5,2014_Jul_08_1503,None,SSVP5_75,001,bill,
0,0,0,0,9,0,9,0,1404857054.76400,5,2014_Jul_08_1503,None,SSVP5_75,001,bill,
0,0,0,0,10,0,10,0,1404857054.88700,5,2014_Jul_08_1503,None,SSVP5_75,001,bill,
0,0,0,0,11,0,11,0,1404857055.01500,5,2014_Jul_08_1503,None,SSVP5_75,001,bill,
0,0,0,0,12,0,12,0,1404857055.14500,5,2014_Jul_08_1503,None,SSVP5_75,001,bill,
0,0,0,0,13,0,13,0,1404857055.26400,5,2014_Jul_08_1503,None,SSVP5_75,001,bill,
0,0,0,0,14,0,14,0,1404857055.39000,5,2014_Jul_08_1503,None,SSVP5_75,001,bill,
0,0,0,0,15,0,15,0,1404857055.51500,5,2014_Jul_08_1503,None,SSVP5_75,001,bill,
0,0,0,0,16,0,16,0,1404857055.64500,5,2014_Jul_08_1503,None,SSVP5_75,001,bill,
0,0,0,0,17,0,17,0,1404857055.76700,5,2014_Jul_08_1503,None,SSVP5_75,001,bill,
0,0,0,0,18,0,18,0,1404857055.89100,5,2014_Jul_08_1503,None,SSVP5_75,001,bill,
0,0,0,0,19,0,19,0,1404857056.01700,5,2014_Jul_08_1503,None,SSVP5_75,001,bill,
0,0,0,0,20,0,20,0,1404857056.14500,5,2014_Jul_08_1503,None,SSVP5_75,001,bill,
0,0,0,0,21,0,21,0,1404857056.26700,5,2014_Jul_08_1503,None,SSVP5_75,001,bill,
0,0,0,0,22,0,22,0,1404857056.39100,5,2014_Jul_08_1503,None,SSVP5_75,001,bill,
0,0,0,0,23,0,23,0,1404857056.51800,5,2014_Jul_08_1503,None,SSVP5_75,001,bill,
0,0,0,0,24,0,24,0,1404857056.64500,5,2014_Jul_08_1503,None,SSVP5_75,001,bill,
0,0,0,0,25,0,25,0,1404857056.76700,5,2014_Jul_08_1503,None,SSVP5_75,001,bill,
0,0,0,0,26,0,26,0,1404857056.89300,5,2014_Jul_08_1503,None,SSVP5_75,001,bill,
0,0,0,0,27,0,27,0,1404857057.02000,5,2014_Jul_08_1503,None,SSVP5_75,001,bill,
0,0,0,0,28,0,28,0,1404857057.14700,5,2014_Jul_08_1503,None,SSVP5_75,001,bill,
0,0,0,0,29,0,29,0,1404857057.27700,5,2014_Jul_08_1503,None,SSVP5_75,001,bill,
0,0,0,0,,,,,,,2014_Jul_08_1503,None,SSVP5_75,001,bill,
1,0,1,0,0,0,0,0,1404857060.40000,5,2014_Jul_08_1503,None,SSVP5_75,001,bill,
1,0,1,0,1,0,1,0,1404857060.52200,5,2014_Jul_08_1503,None,SSVP5_75,001,bill,
1,0,1,0,2,0,2,0,1404857060.64900,5,2014_Jul_08_1503,None,SSVP5_75,001,bill,
1,0,1,0,3,0,3,0,1404857060.77300,5,2014_Jul_08_1503,None,SSVP5_75,001,bill,
1,0,1,0,4,0,4,0,1404857060.89900,5,2014_Jul_08_1503,None,SSVP5_75,001,bill,
1,0,1,0,5,0,5,0,1404857061.02700,5,2014_Jul_08_1503,None,SSVP5_75,001,bill,
1,0,1,0,6,0,6,0,1404857061.15600,5,2014_Jul_08_1503,None,SSVP5_75,001,bill,
1,0,1,0,7,0,7,0,1404857061.28500,5,2014_Jul_08_1503,None,SSVP5_75,001,bill,
1,0,1,0,8,0,8,0,1404857061.40800,5,2014_Jul_08_1503,None,SSVP5_75,001,bill,
1,0,1,0,9,0,9,0,1404857061.53100,5,2014_Jul_08_1503,None,SSVP5_75,001,bill,
1,0,1,0,10,0,10,0,1404857061.65900,5,2014_Jul_08_1503,None,SSVP5_75,001,bill,
1,0,1,0,11,0,11,0,1404857061.79200,5,2014_Jul_08_1503,None,SSVP5_75,001,bill,
1,0,1,0,12,0,12,0,1404857061.92100,5,2014_Jul_08_1503,None,SSVP5_75,001,bill,
1,0,1,0,13,0,13,0,1404857062.05100,5,2014_Jul_08_1503,None,SSVP5_75,001,bill,
1,0,1,0,14,0,14,0,1404857062.17700,5,2014_Jul_08_1503,None,SSVP5_75,001,bill,
1,0,1,0,15,0,15,0,1404857062.30100,5,2014_Jul_08_1503,None,SSVP5_75,001,bill,
1,0,1,0,16,0,16,0,1404857062.42700,5,2014_Jul_08_1503,None,SSVP5_75,001,bill,
1,0,1,0,17,0,17,0,1404857062.55600,5,2014_Jul_08_1503,None,SSVP5_75,001,bill,
1,0,1,0,18,0,18,0,1404857062.68700,5,2014_Jul_08_1503,None,SSVP5_75,001,bill,
1,0,1,0,19,0,19,0,1404857062.81300,5,2014_Jul_08_1503,None,SSVP5_75,001,bill,
1,0,1,0,20,0,20,0,1404857062.93600,5,2014_Jul_08_1503,None,SSVP5_75,001,bill,
1,0,1,0,21,0,21,0,1404857063.06200,5,2014_Jul_08_1503,None,SSVP5_75,001,bill,
1,0,1,0,22,0,22,0,1404857063.19200,5,2014_Jul_08_1503,None,SSVP5_75,001,bill,
1,0,1,0,23,0,23,0,1404857063.32900,5,2014_Jul_08_1503,None,SSVP5_75,001,bill,
1,0,1,0,24,0,24,0,1404857063.45700,5,2014_Jul_08_1503,None,SSVP5_75,001,bill,
1,0,1,0,25,0,25,0,1404857063.58800,5,2014_Jul_08_1503,None,SSVP5_75,001,bill,
1,0,1,0,26,0,26,0,1404857063.72300,5,2014_Jul_08_1503,None,SSVP5_75,001,bill,
1,0,1,0,27,0,27,0,1404857063.84500,5,2014_Jul_08_1503,None,SSVP5_75,001,bill,
1,0,1,0,28,0,28,0,1404857063.97200,5,2014_Jul_08_1503,None,SSVP5_75,001,bill,
1,0,1,0,29,0,29,0,1404857064.10400,5,2014_Jul_08_1503,None,SSVP5_75,001,bill,
1,0,1,0,,,,,,,2014_Jul_08_1503,None,SSVP5_75,001,bill,
2,0,2,0,0,0,0,0,1404857067.42900,5,2014_Jul_08_1503,None,SSVP5_75,001,bill,
2,0,2,0,1,0,1,0,1404857067.58000,5,2014_Jul_08_1503,None,SSVP5_75,001,bill,
2,0,2,0,2,0,2,0,1404857067.70700,5,2014_Jul_08_1503,None,SSVP5_75,001,bill,
2,0,2,0,3,0,3,0,1404857067.83400,5,2014_Jul_08_1503,None,SSVP5_75,001,bill,
2,0,2,0,4,0,4,0,1404857067.96200,5,2014_Jul_08_1503,None,SSVP5_75,001,bill,
2,0,2,0,5,0,5,0,1404857068.08400,5,2014_Jul_08_1503,None,SSVP5_75,001,bill,
2,0,2,0,6,0,6,0,1404857068.20700,5,2014_Jul_08_1503,None,SSVP5_75,001,bill,
2,0,2,0,7,0,7,0,1404857068.33500,5,2014_Jul_08_1503,None,SSVP5_75,001,bill,
2,0,2,0,8,0,8,0,1404857068.46500,5,2014_Jul_08_1503,None,SSVP5_75,001,bill,
2,0,2,0,9,0,9,0,1404857068.59300,5,2014_Jul_08_1503,None,SSVP5_75,001,bill,
2,0,2,0,10,0,10,0,1404857068.72700,5,2014_Jul_08_1503,None,SSVP5_75,001,bill,
2,0,2,0,11,0,11,0,1404857068.85000,5,2014_Jul_08_1503,None,SSVP5_75,001,bill,
2,0,2,0,12,0,12,0,1404857068.97600,5,2014_Jul_08_1503,None,SSVP5_75,001,bill,
2,0,2,0,13,0,13,0,1404857069.10300,5,2014_Jul_08_1503,None,SSVP5_75,001,bill,
2,0,2,0,14,0,14,0,1404857069.23200,5,2014_Jul_08_1503,None,SSVP5_75,001,bill,
2,0,2,0,15,0,15,0,1404857069.36100,5,2014_Jul_08_1503,None,SSVP5_75,001,bill,
2,0,2,0,16,0,16,0,1404857069.48800,5,2014_Jul_08_1503,None,SSVP5_75,001,bill,
2,0,2,0,17,0,17,0,1404857069.60800,5,2014_Jul_08_1503,None,SSVP5_75,001,bill,
2,0,2,0,18,0,18,0,1404857069.73500,5,2014_Jul_08_1503,None,SSVP5_75,001,bill,
2,0,2,0,19,0,19,0,1404857069.87000,5,2014_Jul_08_1503,None,SSVP5_75,001,bill,
2,0,2,0,20,0,20,0,1404857070.00100,5,2014_Jul_08_1503,None,SSVP5_75,001,bill,
2,0,2,0,21,0,21,0,1404857070.13200,5,2014_Jul_08_1503,None,SSVP5_75,001,bill,
2,0,2,0,22,0,22,0,1404857070.26300,5,2014_Jul_08_1503,None,SSVP5_75,001,bill,
2,0,2,0,23,0,23,0,1404857070.38900,5,2014_Jul_08_1503,None,SSVP5_75,001,bill,
2,0,2,0,24,0,24,0,1404857070.51600,5,2014_Jul_08_1503,None,SSVP5_75,001,bill,
2,0,2,0,25,0,25,0,1404857070.63700,5,2014_Jul_08_1503,None,SSVP5_75,001,bill,
2,0,2,0,26,0,26,0,1404857070.76700,5,2014_Jul_08_1503,None,SSVP5_75,001,bill,
2,0,2,0,27,0,27,0,1404857070.88900,5,2014_Jul_08_1503,None,SSVP5_75,001,bill,
2,0,2,0,28,0,28,0,1404857071.01200,5,2014_Jul_08_1503,None,SSVP5_75,001,bill,
2,0,2,0,29,0,29,0,1404857071.13700,5,2014_Jul_08_1503,None,SSVP5_75,001,bill,
2,0,2,0,,,,,,,2014_Jul_08_1503,None,SSVP5_75,001,bill,
3,0,3,0,0,0,0,0,1404857074.26900,5,2014_Jul_08_1503,None,SSVP5_75,001,bill,
3,0,3,0,1,0,1,0,1404857074.40800,5,2014_Jul_08_1503,None,SSVP5_75,001,bill,
3,0,3,0,2,0,2,0,1404857074.53800,5,2014_Jul_08_1503,None,SSVP5_75,001,bill,
3,0,3,0,3,0,3,0,1404857074.67000,5,2014_Jul_08_1503,None,SSVP5_75,001,bill,
3,0,3,0,4,0,4,0,1404857074.80500,5,2014_Jul_08_1503,None,SSVP5_75,001,bill,
3,0,3,0,5,0,5,0,1404857074.93900,5,2014_Jul_08_1503,None,SSVP5_75,001,bill,
3,0,3,0,6,0,6,0,1404857075.07600,5,2014_Jul_08_1503,None,SSVP5_75,001,bill,
3,0,3,0,7,0,7,0,1404857075.20300,5,2014_Jul_08_1503,None,SSVP5_75,001,bill,
3,0,3,0,8,0,8,0,1404857075.32600,5,2014_Jul_08_1503,None,SSVP5_75,001,bill,
3,0,3,0,9,0,9,0,1404857075.45100,5,2014_Jul_08_1503,None,SSVP5_75,001,bill,
3,0,3,0,10,0,10,0,1404857075.58300,5,2014_Jul_08_1503,None,SSVP5_75,001,bill,
3,0,3,0,11,0,11,0,1404857075.71300,5,2014_Jul_08_1503,None,SSVP5_75,001,bill,
3,0,3,0,12,0,12,0,1404857075.84500,5,2014_Jul_08_1503,None,SSVP5_75,001,bill,
3,0,3,0,13,0,13,0,1404857075.97100,5,2014_Jul_08_1503,None,SSVP5_75,001,bill,
3,0,3,0,14,0,14,0,1404857076.09400,5,2014_Jul_08_1503,None,SSVP5_75,001,bill,
3,0,3,0,15,0,15,0,1404857076.21700,5,2014_Jul_08_1503,None,SSVP5_75,001,bill,
3,0,3,0,16,0,16,0,1404857076.35300,5,2014_Jul_08_1503,None,SSVP5_75,001,bill,
3,0,3,0,17,0,17,0,1404857076.47900,5,2014_Jul_08_1503,None,SSVP5_75,001,bill,
3,0,3,0,18,0,18,0,1404857076.61100,5,2014_Jul_08_1503,None,SSVP5_75,001,bill,
3,0,3,0,19,0,19,0,1404857076.76000,5,2014_Jul_08_1503,None,SSVP5_75,001,bill,
3,0,3,0,20,0,20,0,1404857076.88600,5,2014_Jul_08_1503,None,SSVP5_75,001,bill,
3,0,3,0,21,0,21,0,1404857077.01300,5,2014_Jul_08_1503,None,SSVP5_75,001,bill,
3,0,3,0,22,0,22,0,1404857077.14400,5,2014_Jul_08_1503,None,SSVP5_75,001,bill,
3,0,3,0,23,0,23,0,1404857077.27500,5,2014_Jul_08_1503,None,SSVP5_75,001,bill,
3,0,3,0,24,0,24,0,1404857077.40600,5,2014_Jul_08_1503,None,SSVP5_75,001,bill,
3,0,3,0,25,0,25,0,1404857077.52900,5,2014_Jul_08_1503,None,SSVP5_75,001,bill,
3,0,3,0,26,0,26,0,1404857077.66200,5,2014_Jul_08_1503,None,SSVP5_75,001,bill,
3,0,3,0,27,0,27,0,1404857077.78700,5,2014_Jul_08_1503,None,SSVP5_75,001,bill,
3,0,3,0,28,0,28,0,1404857077.91500,5,2014_Jul_08_1503,None,SSVP5_75,001,bill,
3,0,3,0,29,0,29,0,1404857078.04900,5,2014_Jul_08_1503,None,SSVP5_75,001,bill,
3,0,3,0,,,,,,,2014_Jul_08_1503,None,SSVP5_75,001,bill,
4,0,4,0,0,0,0,0,1404857081.26000,5,2014_Jul_08_1503,None,SSVP5_75,001,bill,
4,0,4,0,1,0,1,0,1404857081.38400,5,2014_Jul_08_1503,None,SSVP5_75,001,bill,
4,0,4,0,2,0,2,0,1404857081.51500,5,2014_Jul_08_1503,None,SSVP5_75,001,bill,
4,0,4,0,3,0,3,0,1404857081.64800,5,2014_Jul_08_1503,None,SSVP5_75,001,bill,
4,0,4,0,4,0,4,0,1404857081.78000,5,2014_Jul_08_1503,None,SSVP5_75,001,bill,
4,0,4,0,5,0,5,0,1404857081.91500,5,2014_Jul_08_1503,None,SSVP5_75,001,bill,
4,0,4,0,6,0,6,0,1404857082.03800,5,2014_Jul_08_1503,None,SSVP5_75,001,bill,
4,0,4,0,7,0,7,0,1404857082.16100,5,2014_Jul_08_1503,None,SSVP5_75,001,bill,
4,0,4,0,8,0,8,0,1404857082.28800,5,2014_Jul_08_1503,None,SSVP5_75,001,bill,
4,0,4,0,9,0,9,0,1404857082.42300,5,2014_Jul_08_1503,None,SSVP5_75,001,bill,
4,0,4,0,10,0,10,0,1404857082.55500,5,2014_Jul_08_1503,None,SSVP5_75,001,bill,
4,0,4,0,11,0,11,0,1404857082.68700,5,2014_Jul_08_1503,None,SSVP5_75,001,bill,
4,0,4,0,12,0,12,0,1404857082.82200,5,2014_Jul_08_1503,None,SSVP5_75,001,bill,
4,0,4,0,13,0,13,0,1404857082.95600,5,2014_Jul_08_1503,None,SSVP5_75,001,bill,
4,0,4,0,14,0,14,0,1404857083.08400,5,2014_Jul_08_1503,None,SSVP5_75,001,bill,
4,0,4,0,15,0,15,0,1404857083.21500,5,2014_Jul_08_1503,None,SSVP5_75,001,bill,
4,0,4,0,16,0,16,0,1404857083.34100,5,2014_Jul_08_1503,None,SSVP5_75,001,bill,
4,0,4,0,17,0,17,0,1404857083.46400,5,2014_Jul_08_1503,None,SSVP5_75,001,bill,
4,0,4,0,18,0,18,0,1404857083.59900,5,2014_Jul_08_1503,None,SSVP5_75,001,bill,
4,0,4,0,19,0,19,0,1404857083.72300,5,2014_Jul_08_1503,None,SSVP5_75,001,bill,
4,0,4,0,20,0,20,0,1404857083.85400,5,2014_Jul_08_1503,None,SSVP5_75,001,bill,
4,0,4,0,21,0,21,0,1404857083.98500,5,2014_Jul_08_1503,None,SSVP5_75,001,bill,
4,0,4,0,22,0,22,0,1404857084.12400,5,2014_Jul_08_1503,None,SSVP5_75,001,bill,
4,0,4,0,23,0,23,0,1404857084.25100,5,2014_Jul_08_1503,None,SSVP5_75,001,bill,
4,0,4,0,24,0,24,0,1404857084.37300,5,2014_Jul_08_1503,None,SSVP5_75,001,bill,
4,0,4,0,25,0,25,0,1404857084.51200,5,2014_Jul_08_1503,None,SSVP5_75,001,bill,
4,0,4,0,26,0,26,0,1404857084.65200,5,2014_Jul_08_1503,None,SSVP5_75,001,bill,
4,0,4,0,27,0,27,0,1404857084.77500,5,2014_Jul_08_1503,None,SSVP5_75,001,bill,
4,0,4,0,28,0,28,0,1404857084.90100,5,2014_Jul_08_1503,None,SSVP5_75,001,bill,
4,0,4,0,29,0,29,0,1404857085.02900,5,2014_Jul_08_1503,None,SSVP5_75,001,bill,
4,0,4,0,,,,,,,2014_Jul_08_1503,None,SSVP5_75,001,bill,
5,0,5,0,0,0,0,0,1404857088.19700,5,2014_Jul_08_1503,None,SSVP5_75,001,bill,
5,0,5,0,1,0,1,0,1404857088.32400,5,2014_Jul_08_1503,None,SSVP5_75,001,bill,
5,0,5,0,2,0,2,0,1404857088.45700,5,2014_Jul_08_1503,None,SSVP5_75,001,bill,
5,0,5,0,3,0,3,0,1404857088.58900,5,2014_Jul_08_1503,None,SSVP5_75,001,bill,
5,0,5,0,4,0,4,0,1404857088.71200,5,2014_Jul_08_1503,None,SSVP5_75,001,bill,
5,0,5,0,5,0,5,0,1404857088.83700,5,2014_Jul_08_1503,None,SSVP5_75,001,bill,
5,0,5,0,6,0,6,0,1404857088.96800,5,2014_Jul_08_1503,None,SSVP5_75,001,bill,
5,0,5,0,7,0,7,0,1404857089.10400,5,2014_Jul_08_1503,None,SSVP5_75,001,bill,
5,0,5,0,8,0,8,0,1404857089.24200,5,2014_Jul_08_1503,None,SSVP5_75,001,bill,
5,0,5,0,9,0,9,0,1404857089.36400,5,2014_Jul_08_1503,None,SSVP5_75,001,bill,
5,0,5,0,10,0,10,0,1404857089.49300,5,2014_Jul_08_1503,None,SSVP5_75,001,bill,
5,0,5,0,11,0,11,0,1404857089.62400,5,2014_Jul_08_1503,None,SSVP5_75,001,bill,
5,0,5,0,12,0,12,0,1404857089.74600,5,2014_Jul_08_1503,None,SSVP5_75,001,bill,
5,0,5,0,13,0,13,0,1404857089.87400,5,2014_Jul_08_1503,None,SSVP5_75,001,bill,
5,0,5,0,14,0,14,0,1404857089.99700,5,2014_Jul_08_1503,None,SSVP5_75,001,bill,
5,0,5,0,15,0,15,0,1404857090.14900,5,2014_Jul_08_1503,None,SSVP5_75,001,bill,
5,0,5,0,16,0,16,0,1404857090.27900,5,2014_Jul_08_1503,None,SSVP5_75,001,bill,
5,0,5,0,17,0,17,0,1404857090.40500,5,2014_Jul_08_1503,None,SSVP5_75,001,bill,
5,0,5,0,18,0,18,0,1404857090.54100,5,2014_Jul_08_1503,None,SSVP5_75,001,bill,
5,0,5,0,19,0,19,0,1404857090.66400,5,2014_Jul_08_1503,None,SSVP5_75,001,bill,
5,0,5,0,20,0,20,0,1404857090.79200,5,2014_Jul_08_1503,None,SSVP5_75,001,bill,
5,0,5,0,21,0,21,0,1404857090.91300,5,2014_Jul_08_1503,None,SSVP5_75,001,bill,
5,0,5,0,22,0,22,0,1404857091.04600,5,2014_Jul_08_1503,None,SSVP5_75,001,bill,
5,0,5,0,23,0,23,0,1404857091.17400,5,2014_Jul_08_1503,None,SSVP5_75,001,bill,
5,0,5,0,24,0,24,0,1404857091.30600,5,2014_Jul_08_1503,None,SSVP5_75,001,bill,
5,0,5,0,25,0,25,0,1404857091.43300,5,2014_Jul_08_1503,None,SSVP5_75,001,bill,
5,0,5,0,26,0,26,0,1404857091.56200,5,2014_Jul_08_1503,None,SSVP5_75,001,bill,
5,0,5,0,27,0,27,0,1404857091.69500,5,2014_Jul_08_1503,None,SSVP5_75,001,bill,
5,0,5,0,28,0,28,0,1404857091.83100,5,2014_Jul_08_1503,None,SSVP5_75,001,bill,
5,0,5,0,29,0,29,0,1404857091.96000,5,2014_Jul_08_1503,None,SSVP5_75,001,bill,
5,0,5,0,,,,,,,2014_Jul_08_1503,None,SSVP5_75,001,bill,
6,0,6,0,0,0,0,0,1404857095.20500,5,2014_Jul_08_1503,None,SSVP5_75,001,bill,
6,0,6,0,1,0,1,0,1404857095.33200,5,2014_Jul_08_1503,None,SSVP5_75,001,bill,
6,0,6,0,2,0,2,0,1404857095.46800,5,2014_Jul_08_1503,None,SSVP5_75,001,bill,
6,0,6,0,3,0,3,0,1404857095.60100,5,2014_Jul_08_1503,None,SSVP5_75,001,bill,
6,0,6,0,4,0,4,0,1404857095.72400,5,2014_Jul_08_1503,None,SSVP5_75,001,bill,
6,0,6,0,5,0,5,0,1404857095.86300,5,2014_Jul_08_1503,None,SSVP5_75,001,bill,
6,0,6,0,6,0,6,0,1404857095.99800,5,2014_Jul_08_1503,None,SSVP5_75,001,bill,
6,0,6,0,7,0,7,0,1404857096.13300,5,2014_Jul_08_1503,None,SSVP5_75,001,bill,
6,0,6,0,8,0,8,0,1404857096.27100,5,2014_Jul_08_1503,None,SSVP5_75,001,bill,
6,0,6,0,9,0,9,0,1404857096.40300,5,2014_Jul_08_1503,None,SSVP5_75,001,bill,
6,0,6,0,10,0,10,0,1404857096.53700,5,2014_Jul_08_1503,None,SSVP5_75,001,bill,
6,0,6,0,11,0,11,0,1404857096.66900,5,2014_Jul_08_1503,None,SSVP5_75,001,bill,
6,0,6,0,12,0,12,0,1404857096.79200,5,2014_Jul_08_1503,None,SSVP5_75,001,bill,
6,0,6,0,13,0,13,0,1404857096.92500,5,2014_Jul_08_1503,None,SSVP5_75,001,bill,
6,0,6,0,14,0,14,0,1404857097.05000,5,2014_Jul_08_1503,None,SSVP5_75,001,bill,
6,0,6,0,15,0,15,0,1404857097.17600,5,2014_Jul_08_1503,None,SSVP5_75,001,bill,
6,0,6,0,16,0,16,0,1404857097.30400,5,2014_Jul_08_1503,None,SSVP5_75,001,bill,
6,0,6,0,17,0,17,0,1404857097.43800,5,2014_Jul_08_1503,None,SSVP5_75,001,bill,
6,0,6,0,18,0,18,0,1404857097.57100,5,2014_Jul_08_1503,None,SSVP5_75,001,bill,
6,0,6,0,19,0,19,0,1404857097.70200,5,2014_Jul_08_1503,None,SSVP5_75,001,bill,
6,0,6,0,20,0,20,0,1404857097.82400,5,2014_Jul_08_1503,None,SSVP5_75,001,bill,
6,0,6,0,21,0,21,0,1404857097.95000,5,2014_Jul_08_1503,None,SSVP5_75,001,bill,
6,0,6,0,22,0,22,0,1404857098.07900,5,2014_Jul_08_1503,None,SSVP5_75,001,bill,
6,0,6,0,23,0,23,0,1404857098.21700,5,2014_Jul_08_1503,None,SSVP5_75,001,bill,
6,0,6,0,24,0,24,0,1404857098.34800,5,2014_Jul_08_1503,None,SSVP5_75,001,bill,
6,0,6,0,25,0,25,0,1404857098.47900,5,2014_Jul_08_1503,None,SSVP5_75,001,bill,
6,0,6,0,26,0,26,0,1404857098.61000,5,2014_Jul_08_1503,None,SSVP5_75,001,bill,
6,0,6,0,27,0,27,0,1404857098.75000,5,2014_Jul_08_1503,None,SSVP5_75,001,bill,
6,0,6,0,28,0,28,0,1404857098.87700,5,2014_Jul_08_1503,None,SSVP5_75,001,bill,
6,0,6,0,29,0,29,0,1404857099.00800,5,2014_Jul_08_1503,None,SSVP5_75,001,bill,
6,0,6,0,,,,,,,2014_Jul_08_1503,None,SSVP5_75,001,bill,
7,0,7,0,0,0,0,0,1404857102.19800,5,2014_Jul_08_1503,None,SSVP5_75,001,bill,
7,0,7,0,1,0,1,0,1404857102.33100,5,2014_Jul_08_1503,None,SSVP5_75,001,bill,
7,0,7,0,2,0,2,0,1404857102.47300,5,2014_Jul_08_1503,None,SSVP5_75,001,bill,
7,0,7,0,3,0,3,0,1404857102.59800,5,2014_Jul_08_1503,None,SSVP5_75,001,bill,
7,0,7,0,4,0,4,0,1404857102.74000,5,2014_Jul_08_1503,None,SSVP5_75,001,bill,
7,0,7,0,5,0,5,0,1404857102.87500,5,2014_Jul_08_1503,None,SSVP5_75,001,bill,
7,0,7,0,6,0,6,0,1404857103.00500,5,2014_Jul_08_1503,None,SSVP5_75,001,bill,
7,0,7,0,7,0,7,0,1404857103.13100,5,2014_Jul_08_1503,None,SSVP5_75,001,bill,
7,0,7,0,8,0,8,0,1404857103.25400,5,2014_Jul_08_1503,None,SSVP5_75,001,bill,
7,0,7,0,9,0,9,0,1404857103.38300,5,2014_Jul_08_1503,None,SSVP5_75,001,bill,
7,0,7,0,10,0,10,0,1404857103.52600,5,2014_Jul_08_1503,None,SSVP5_75,001,bill,
7,0,7,0,11,0,11,0,1404857103.65600,5,2014_Jul_08_1503,None,SSVP5_75,001,bill,
7,0,7,0,12,0,12,0,1404857103.78400,5,2014_Jul_08_1503,None,SSVP5_75,001,bill,
7,0,7,0,13,0,13,0,1404857103.91800,5,2014_Jul_08_1503,None,SSVP5_75,001,bill,
7,0,7,0,14,0,14,0,1404857104.05200,5,2014_Jul_08_1503,None,SSVP5_75,001,bill,
7,0,7,0,15,0,15,0,1404857104.18500,5,2014_Jul_08_1503,None,SSVP5_75,001,bill,
7,0,7,0,16,0,16,0,1404857104.31400,5,2014_Jul_08_1503,None,SSVP5_75,001,bill,
7,0,7,0,17,0,17,0,1404857104.45100,5,2014_Jul_08_1503,None,SSVP5_75,001,bill,
7,0,7,0,18,0,18,0,1404857104.57900,5,2014_Jul_08_1503,None,SSVP5_75,001,bill,
7,0,7,0,19,0,19,0,1404857104.71400,5,2014_Jul_08_1503,None,SSVP5_75,001,bill,
7,0,7,0,20,0,20,0,1404857104.85200,5,2014_Jul_08_1503,None,SSVP5_75,001,bill,
7,0,7,0,21,0,21,0,1404857104.98400,5,2014_Jul_08_1503,None,SSVP5_75,001,bill,
7,0,7,0,22,0,22,0,1404857105.12600,5,2014_Jul_08_1503,None,SSVP5_75,001,bill,
7,0,7,0,23,0,23,0,1404857105.25300,5,2014_Jul_08_1503,None,SSVP5_75,001,bill,
7,0,7,0,24,0,24,0,1404857105.37900,5,2014_Jul_08_1503,None,SSVP5_75,001,bill,
7,0,7,0,25,0,25,0,1404857105.51000,5,2014_Jul_08_1503,None,SSVP5_75,001,bill,
7,0,7,0,26,0,26,0,1404857105.63600,5,2014_Jul_08_1503,None,SSVP5_75,001,bill,
7,0,7,0,27,0,27,0,1404857105.78200,5,2014_Jul_08_1503,None,SSVP5_75,001,bill,
7,0,7,0,28,0,28,0,1404857105.91300,5,2014_Jul_08_1503,None,SSVP5_75,001,bill,
7,0,7,0,29,0,29,0,1404857106.04900,5,2014_Jul_08_1503,None,SSVP5_75,001,bill,
7,0,7,0,,,,,,,2014_Jul_08_1503,None,SSVP5_75,001,bill,
8,0,8,0,0,0,0,0,1404857109.26700,5,2014_Jul_08_1503,None,SSVP5_75,001,bill,
8,0,8,0,1,0,1,0,1404857109.39800,5,2014_Jul_08_1503,None,SSVP5_75,001,bill,
8,0,8,0,2,0,2,0,1404857109.52400,5,2014_Jul_08_1503,None,SSVP5_75,001,bill,
8,0,8,0,3,0,3,0,1404857109.65100,5,2014_Jul_08_1503,None,SSVP5_75,001,bill,
8,0,8,0,4,0,4,0,1404857109.77400,5,2014_Jul_08_1503,None,SSVP5_75,001,bill,
8,0,8,0,5,0,5,0,1404857109.92300,5,2014_Jul_08_1503,None,SSVP5_75,001,bill,
8,0,8,0,6,0,6,0,1404857110.06200,5,2014_Jul_08_1503,None,SSVP5_75,001,bill,
8,0,8,0,7,0,7,0,1404857110.20200,5,2014_Jul_08_1503,None,SSVP5_75,001,bill,
8,0,8,0,8,0,8,0,1404857110.34400,5,2014_Jul_08_1503,None,SSVP5_75,001,bill,
8,0,8,0,9,0,9,0,1404857110.46500,5,2014_Jul_08_1503,None,SSVP5_75,001,bill,
8,0,8,0,10,0,10,0,1404857110.59800,5,2014_Jul_08_1503,None,SSVP5_75,001,bill,
8,0,8,0,11,0,11,0,1404857110.72600,5,2014_Jul_08_1503,None,SSVP5_75,001,bill,
8,0,8,0,12,0,12,0,1404857110.86000,5,2014_Jul_08_1503,None,SSVP5_75,001,bill,
8,0,8,0,13,0,13,0,1404857110.99300,5,2014_Jul_08_1503,None,SSVP5_75,001,bill,
8,0,8,0,14,0,14,0,1404857111.12700,5,2014_Jul_08_1503,None,SSVP5_75,001,bill,
8,0,8,0,15,0,15,0,1404857111.26100,5,2014_Jul_08_1503,None,SSVP5_75,001,bill,
8,0,8,0,16,0,16,0,1404857111.38900,5,2014_Jul_08_1503,None,SSVP5_75,001,bill,
8,0,8,0,17,0,17,0,1404857111.52000,5,2014_Jul_08_1503,None,SSVP5_75,001,bill,
8,0,8,0,18,0,18,0,1404857111.65200,5,2014_Jul_08_1503,None,SSVP5_75,001,bill,
8,0,8,0,19,0,19,0,1404857111.78200,5,2014_Jul_08_1503,None,SSVP5_75,001,bill,
8,0,8,0,20,0,20,0,1404857111.92300,5,2014_Jul_08_1503,None,SSVP5_75,001,bill,
8,0,8,0,21,0,21,0,1404857112.05600,5,2014_Jul_08_1503,None,SSVP5_75,001,bill,
8,0,8,0,22,0,22,0,1404857112.19200,5,2014_Jul_08_1503,None,SSVP5_75,001,bill,
8,0,8,0,23,0,23,0,1404857112.32600,5,2014_Jul_08_1503,None,SSVP5_75,001,bill,
8,0,8,0,24,0,24,0,1404857112.45800,5,2014_Jul_08_1503,None,SSVP5_75,001,bill,
8,0,8,0,25,0,25,0,1404857112.61500,5,2014_Jul_08_1503,None,SSVP5_75,001,bill,
8,0,8,0,26,0,26,0,1404857112.73500,5,2014_Jul_08_1503,None,SSVP5_75,001,bill,
8,0,8,0,27,0,27,0,1404857112.86200,5,2014_Jul_08_1503,None,SSVP5_75,001,bill,
8,0,8,0,28,0,28,0,1404857112.99000,5,2014_Jul_08_1503,None,SSVP5_75,001,bill,
8,0,8,0,29,0,29,0,1404857113.11200,5,2014_Jul_08_1503,None,SSVP5_75,001,bill,
8,0,8,0,,,,,,,2014_Jul_08_1503,None,SSVP5_75,001,bill,
9,0,9,0,0,0,0,0,1404857116.19900,5,2014_Jul_08_1503,None,SSVP5_75,001,bill,
9,0,9,0,1,0,1,0,1404857116.32800,5,2014_Jul_08_1503,None,SSVP5_75,001,bill,
9,0,9,0,2,0,2,0,1404857116.45000,5,2014_Jul_08_1503,None,SSVP5_75,001,bill,
9,0,9,0,3,0,3,0,1404857116.57400,5,2014_Jul_08_1503,None,SSVP5_75,001,bill,
9,0,9,0,4,0,4,0,1404857116.70200,5,2014_Jul_08_1503,None,SSVP5_75,001,bill,
9,0,9,0,5,0,5,0,1404857116.82800,5,2014_Jul_08_1503,None,SSVP5_75,001,bill,
9,0,9,0,6,0,6,0,1404857116.95000,5,2014_Jul_08_1503,None,SSVP5_75,001,bill,
9,0,9,0,7,0,7,0,1404857117.07300,5,2014_Jul_08_1503,None,SSVP5_75,001,bill,
9,0,9,0,8,0,8,0,1404857117.20100,5,2014_Jul_08_1503,None,SSVP5_75,001,bill,
9,0,9,0,9,0,9,0,1404857117.32900,5,2014_Jul_08_1503,None,SSVP5_75,001,bill,
9,0,9,0,10,0,10,0,1404857117.45100,5,2014_Jul_08_1503,None,SSVP5_75,001,bill,
9,0,9,0,11,0,11,0,1404857117.57300,5,2014_Jul_08_1503,None,SSVP5_75,001,bill,
9,0,9,0,12,0,12,0,1404857117.70200,5,2014_Jul_08_1503,None,SSVP5_75,001,bill,
9,0,9,0,13,0,13,0,1404857117.83000,5,2014_Jul_08_1503,None,SSVP5_75,001,bill,
9,0,9,0,14,0,14,0,1404857117.95200,5,2014_Jul_08_1503,None,SSVP5_75,001,bill,
9,0,9,0,15,0,15,0,1404857118.07700,5,2014_Jul_08_1503,None,SSVP5_75,001,bill,
9,0,9,0,16,0,16,0,1404857118.20100,5,2014_Jul_08_1503,None,SSVP5_75,001,bill,
9,0,9,0,17,0,17,0,1404857118.33100,5,2014_Jul_08_1503,None,SSVP5_75,001,bill,
9,0,9,0,18,0,18,0,1404857118.45300,5,2014_Jul_08_1503,None,SSVP5_75,001,bill,
9,0,9,0,19,0,19,0,1404857118.57600,5,2014_Jul_08_1503,None,SSVP5_75,001,bill,
9,0,9,0,20,0,20,0,1404857118.70300,5,2014_Jul_08_1503,None,SSVP5_75,001,bill,
9,0,9,0,21,0,21,0,1404857118.83100,5,2014_Jul_08_1503,None,SSVP5_75,001,bill,
9,0,9,0,22,0,22,0,1404857118.95200,5,2014_Jul_08_1503,None,SSVP5_75,001,bill,
9,0,9,0,23,0,23,0,1404857119.07600,5,2014_Jul_08_1503,None,SSVP5_75,001,bill,
9,0,9,0,24,0,24,0,1404857119.20300,5,2014_Jul_08_1503,None,SSVP5_75,001,bill,
9,0,9,0,25,0,25,0,1404857119.33100,5,2014_Jul_08_1503,None,SSVP5_75,001,bill,
9,0,9,0,26,0,26,0,1404857119.45400,5,2014_Jul_08_1503,None,SSVP5_75,001,bill,
9,0,9,0,27,0,27,0,1404857119.57900,5,2014_Jul_08_1503,None,SSVP5_75,001,bill,
9,0,9,0,28,0,28,0,1404857119.70500,5,2014_Jul_08_1503,None,SSVP5_75,001,bill,
9,0,9,0,29,0,29,0,1404857119.83200,5,2014_Jul_08_1503,None,SSVP5_75,001,bill,
9,0,9,0,,,,,,,2014_Jul_08_1503,None,SSVP5_75,001,bill,
10,0,10,0,0,0,0,0,1404857122.93500,5,2014_Jul_08_1503,None,SSVP5_75,001,bill,
10,0,10,0,1,0,1,0,1404857123.05700,5,2014_Jul_08_1503,None,SSVP5_75,001,bill,
10,0,10,0,2,0,2,0,1404857123.18200,5,2014_Jul_08_1503,None,SSVP5_75,001,bill,
10,0,10,0,3,0,3,0,1404857123.31000,5,2014_Jul_08_1503,None,SSVP5_75,001,bill,
10,0,10,0,4,0,4,0,1404857123.43700,5,2014_Jul_08_1503,None,SSVP5_75,001,bill,
10,0,10,0,5,0,5,0,1404857123.55800,5,2014_Jul_08_1503,None,SSVP5_75,001,bill,
10,0,10,0,6,0,6,0,1404857123.68300,5,2014_Jul_08_1503,None,SSVP5_75,001,bill,
10,0,10,0,7,0,7,0,1404857123.80900,5,2014_Jul_08_1503,None,SSVP5_75,001,bill,
10,0,10,0,8,0,8,0,1404857123.93700,5,2014_Jul_08_1503,None,SSVP5_75,001,bill,
10,0,10,0,9,0,9,0,1404857124.05900,5,2014_Jul_08_1503,None,SSVP5_75,001,bill,
10,0,10,0,10,0,10,0,1404857124.18400,5,2014_Jul_08_1503,None,SSVP5_75,001,bill,
10,0,10,0,11,0,11,0,1404857124.31100,5,2014_Jul_08_1503,None,SSVP5_75,001,bill,
10,0,10,0,12,0,12,0,1404857124.43800,5,2014_Jul_08_1503,None,SSVP5_75,001,bill,
10,0,10,0,13,0,13,0,1404857124.56000,5,2014_Jul_08_1503,None,SSVP5_75,001,bill,
10,0,10,0,14,0,14,0,1404857124.68600,5,2014_Jul_08_1503,None,SSVP5_75,001,bill,
10,0,10,0,15,0,15,0,1404857124.81200,5,2014_Jul_08_1503,None,SSVP5_75,001,bill,
10,0,10,0,16,0,16,0,1404857124.93900,5,2014_Jul_08_1503,None,SSVP5_75,001,bill,
10,0,10,0,17,0,17,0,1404857125.06200,5,2014_Jul_08_1503,None,SSVP5_75,001,bill,
10,0,10,0,18,0,18,0,1404857125.18500,5,2014_Jul_08_1503,None,SSVP5_75,001,bill,
10,0,10,0,19,0,19,0,1404857125.31200,5,2014_Jul_08_1503,None,SSVP5_75,001,bill,
10,0,10,0,20,0,20,0,1404857125.43900,5,2014_Jul_08_1503,None,SSVP5_75,001,bill,
10,0,10,0,21,0,21,0,1404857125.56100,5,2014_Jul_08_1503,None,SSVP5_75,001,bill,
10,0,10,0,22,0,22,0,1404857125.68400,5,2014_Jul_08_1503,None,SSVP5_75,001,bill,
10,0,10,0,23,0,23,0,1404857125.81100,5,2014_Jul_08_1503,None,SSVP5_75,001,bill,
10,0,10,0,24,0,24,0,1404857125.94100,5,2014_Jul_08_1503,None,SSVP5_75,001,bill,
10,0,10,0,25,0,25,0,1404857126.06300,5,2014_Jul_08_1503,None,SSVP5_75,001,bill,
10,0,10,0,26,0,26,0,1404857126.18700,5,2014_Jul_08_1503,None,SSVP5_75,001,bill,
10,0,10,0,27,0,27,0,1404857126.31400,5,2014_Jul_08_1503,None,SSVP5_75,001,bill,
10,0,10,0,28,0,28,0,1404857126.44200,5,2014_Jul_08_1503,None,SSVP5_75,001,bill,
10,0,10,0,29,0,29,0,1404857126.56300,5,2014_Jul_08_1503,None,SSVP5_75,001,bill,
10,0,10,0,,,,,,,2014_Jul_08_1503,None,SSVP5_75,001,bill,
11,0,11,0,0,0,0,0,1404857129.64700,5,2014_Jul_08_1503,None,SSVP5_75,001,bill,
11,0,11,0,1,0,1,0,1404857129.77800,5,2014_Jul_08_1503,None,SSVP5_75,001,bill,
11,0,11,0,2,0,2,0,1404857129.89900,5,2014_Jul_08_1503,None,SSVP5_75,001,bill,
11,0,11,0,3,0,3,0,1404857130.02300,5,2014_Jul_08_1503,None,SSVP5_75,001,bill,
11,0,11,0,4,0,4,0,1404857130.15200,5,2014_Jul_08_1503,None,SSVP5_75,001,bill,
11,0,11,0,5,0,5,0,1404857130.27900,5,2014_Jul_08_1503,None,SSVP5_75,001,bill,
11,0,11,0,6,0,6,0,1404857130.40200,5,2014_Jul_08_1503,None,SSVP5_75,001,bill,
11,0,11,0,7,0,7,0,1404857130.52700,5,2014_Jul_08_1503,None,SSVP5_75,001,bill,
11,0,11,0,8,0,8,0,1404857130.65400,5,2014_Jul_08_1503,None,SSVP5_75,001,bill,
11,0,11,0,9,0,9,0,1404857130.78100,5,2014_Jul_08_1503,None,SSVP5_75,001,bill,
11,0,11,0,10,0,10,0,1404857130.90400,5,2014_Jul_08_1503,None,SSVP5_75,001,bill,
11,0,11,0,11,0,11,0,1404857131.02700,5,2014_Jul_08_1503,None,SSVP5_75,001,bill,
11,0,11,0,12,0,12,0,1404857131.15200,5,2014_Jul_08_1503,None,SSVP5_75,001,bill,
11,0,11,0,13,0,13,0,1404857131.28200,5,2014_Jul_08_1503,None,SSVP5_75,001,bill,
11,0,11,0,14,0,14,0,1404857131.40600,5,2014_Jul_08_1503,None,SSVP5_75,001,bill,
11,0,11,0,15,0,15,0,1404857131.53600,5,2014_Jul_08_1503,None,SSVP5_75,001,bill,
11,0,11,0,16,0,16,0,1404857131.65900,5,2014_Jul_08_1503,None,SSVP5_75,001,bill,
11,0,11,0,17,0,17,0,1404857131.78800,5,2014_Jul_08_1503,None,SSVP5_75,001,bill,
11,0,11,0,18,0,18,0,1404857131.91500,5,2014_Jul_08_1503,None,SSVP5_75,001,bill,
11,0,11,0,19,0,19,0,1404857132.03600,5,2014_Jul_08_1503,None,SSVP5_75,001,bill,
11,0,11,0,20,0,20,0,1404857132.16000,5,2014_Jul_08_1503,None,SSVP5_75,001,bill,
11,0,11,0,21,0,21,0,1404857132.28900,5,2014_Jul_08_1503,None,SSVP5_75,001,bill,
11,0,11,0,22,0,22,0,1404857132.41700,5,2014_Jul_08_1503,None,SSVP5_75,001,bill,
11,0,11,0,23,0,23,0,1404857132.53700,5,2014_Jul_08_1503,None,SSVP5_75,001,bill,
11,0,11,0,24,0,24,0,1404857132.66100,5,2014_Jul_08_1503,None,SSVP5_75,001,bill,
11,0,11,0,25,0,25,0,1404857132.79000,5,2014_Jul_08_1503,None,SSVP5_75,001,bill,
11,0,11,0,26,0,26,0,1404857132.91900,5,2014_Jul_08_1503,None,SSVP5_75,001,bill,
11,0,11,0,27,0,27,0,1404857133.04800,5,2014_Jul_08_1503,None,SSVP5_75,001,bill,
11,0,11,0,28,0,28,0,1404857133.17200,5,2014_Jul_08_1503,None,SSVP5_75,001,bill,
11,0,11,0,29,0,29,0,1404857133.29800,5,2014_Jul_08_1503,None,SSVP5_75,001,bill,
11,0,11,0,,,,,,,2014_Jul_08_1503,None,SSVP5_75,001,bill,
12,0,12,0,0,0,0,0,1404857136.38700,5,2014_Jul_08_1503,None,SSVP5_75,001,bill,
12,0,12,0,1,0,1,0,1404857136.51100,5,2014_Jul_08_1503,None,SSVP5_75,001,bill,
12,0,12,0,2,0,2,0,1404857136.63500,5,2014_Jul_08_1503,None,SSVP5_75,001,bill,
12,0,12,0,3,0,3,0,1404857136.76200,5,2014_Jul_08_1503,None,SSVP5_75,001,bill,
12,0,12,0,4,0,4,0,1404857136.89000,5,2014_Jul_08_1503,None,SSVP5_75,001,bill,
12,0,12,0,5,0,5,0,1404857137.02300,5,2014_Jul_08_1503,None,SSVP5_75,001,bill,
12,0,12,0,6,0,6,0,1404857137.15400,5,2014_Jul_08_1503,None,SSVP5_75,001,bill,
12,0,12,0,7,0,7,0,1404857137.27600,5,2014_Jul_08_1503,None,SSVP5_75,001,bill,
12,0,12,0,8,0,8,0,1404857137.40100,5,2014_Jul_08_1503,None,SSVP5_75,001,bill,
12,0,12,0,9,0,9,0,1404857137.52900,5,2014_Jul_08_1503,None,SSVP5_75,001,bill,
12,0,12,0,10,0,10,0,1404857137.65900,5,2014_Jul_08_1503,None,SSVP5_75,001,bill,
12,0,12,0,11,0,11,0,1404857137.78800,5,2014_Jul_08_1503,None,SSVP5_75,001,bill,
12,0,12,0,12,0,12,0,1404857137.91200,5,2014_Jul_08_1503,None,SSVP5_75,001,bill,
12,0,12,0,13,0,13,0,1404857138.03700,5,2014_Jul_08_1503,None,SSVP5_75,001,bill,
12,0,12,0,14,0,14,0,1404857138.16400,5,2014_Jul_08_1503,None,SSVP5_75,001,bill,
12,0,12,0,15,0,15,0,1404857138.29100,5,2014_Jul_08_1503,None,SSVP5_75,001,bill,
12,0,12,0,16,0,16,0,1404857138.41300,5,2014_Jul_08_1503,None,SSVP5_75,001,bill,
12,0,12,0,17,0,17,0,1404857138.53600,5,2014_Jul_08_1503,None,SSVP5_75,001,bill,
12,0,12,0,18,0,18,0,1404857138.67100,5,2014_Jul_08_1503,None,SSVP5_75,001,bill,
12,0,12,0,19,0,19,0,1404857138.80600,5,2014_Jul_08_1503,None,SSVP5_75,001,bill,
12,0,12,0,20,0,20,0,1404857138.93900,5,2014_Jul_08_1503,None,SSVP5_75,001,bill,
12,0,12,0,21,0,21,0,1404857139.06500,5,2014_Jul_08_1503,None,SSVP5_75,001,bill,
12,0,12,0,22,0,22,0,1404857139.19600,5,2014_Jul_08_1503,None,SSVP5_75,001,bill,
12,0,12,0,23,0,23,0,1404857139.33200,5,2014_Jul_08_1503,None,SSVP5_75,001,bill,
12,0,12,0,24,0,24,0,1404857139.46300,5,2014_Jul_08_1503,None,SSVP5_75,001,bill,
12,0,12,0,25,0,25,0,1404857139.59200,5,2014_Jul_08_1503,None,SSVP5_75,001,bill,
12,0,12,0,26,0,26,0,1404857139.71400,5,2014_Jul_08_1503,None,SSVP5_75,001,bill,
12,0,12,0,27,0,27,0,1404857139.83800,5,2014_Jul_08_1503,None,SSVP5_75,001,bill,
12,0,12,0,28,0,28,0,1404857139.96600,5,2014_Jul_08_1503,None,SSVP5_75,001,bill,
12,0,12,0,29,0,29,0,1404857140.09700,5,2014_Jul_08_1503,None,SSVP5_75,001,bill,
12,0,12,0,,,,,,,2014_Jul_08_1503,None,SSVP5_75,001,bill,
13,0,13,0,0,0,0,0,1404857143.23100,5,2014_Jul_08_1503,None,SSVP5_75,001,bill,
13,0,13,0,1,0,1,0,1404857143.35400,5,2014_Jul_08_1503,None,SSVP5_75,001,bill,
13,0,13,0,2,0,2,0,1404857143.47800,5,2014_Jul_08_1503,None,SSVP5_75,001,bill,
13,0,13,0,3,0,3,0,1404857143.60300,5,2014_Jul_08_1503,None,SSVP5_75,001,bill,
13,0,13,0,4,0,4,0,1404857143.73200,5,2014_Jul_08_1503,None,SSVP5_75,001,bill,
13,0,13,0,5,0,5,0,1404857143.85300,5,2014_Jul_08_1503,None,SSVP5_75,001,bill,
13,0,13,0,6,0,6,0,1404857143.97800,5,2014_Jul_08_1503,None,SSVP5_75,001,bill,
13,0,13,0,7,0,7,0,1404857144.10600,5,2014_Jul_08_1503,None,SSVP5_75,001,bill,
13,0,13,0,8,0,8,0,1404857144.23300,5,2014_Jul_08_1503,None,SSVP5_75,001,bill,
13,0,13,0,9,0,9,0,1404857144.36300,5,2014_Jul_08_1503,None,SSVP5_75,001,bill,
13,0,13,0,10,0,10,0,1404857144.48500,5,2014_Jul_08_1503,None,SSVP5_75,001,bill,
13,0,13,0,11,0,11,0,1404857144.60600,5,2014_Jul_08_1503,None,SSVP5_75,001,bill,
13,0,13,0,12,0,12,0,1404857144.73300,5,2014_Jul_08_1503,None,SSVP5_75,001,bill,
13,0,13,0,13,0,13,0,1404857144.85400,5,2014_Jul_08_1503,None,SSVP5_75,001,bill,
13,0,13,0,14,0,14,0,1404857144.97800,5,2014_Jul_08_1503,None,SSVP5_75,001,bill,
13,0,13,0,15,0,15,0,1404857145.10600,5,2014_Jul_08_1503,None,SSVP5_75,001,bill,
13,0,13,0,16,0,16,0,1404857145.23400,5,2014_Jul_08_1503,None,SSVP5_75,001,bill,
13,0,13,0,17,0,17,0,1404857145.35400,5,2014_Jul_08_1503,None,SSVP5_75,001,bill,
13,0,13,0,18,0,18,0,1404857145.48000,5,2014_Jul_08_1503,None,SSVP5_75,001,bill,
13,0,13,0,19,0,19,0,1404857145.60600,5,2014_Jul_08_1503,None,SSVP5_75,001,bill,
13,0,13,0,20,0,20,0,1404857145.73500,5,2014_Jul_08_1503,None,SSVP5_75,001,bill,
13,0,13,0,21,0,21,0,1404857145.85600,5,2014_Jul_08_1503,None,SSVP5_75,001,bill,
13,0,13,0,22,0,22,0,1404857145.98100,5,2014_Jul_08_1503,None,SSVP5_75,001,bill,
13,0,13,0,23,0,23,0,1404857146.10600,5,2014_Jul_08_1503,None,SSVP5_75,001,bill,
13,0,13,0,24,0,24,0,1404857146.23700,5,2014_Jul_08_1503,None,SSVP5_75,001,bill,
13,0,13,0,25,0,25,0,1404857146.36700,5,2014_Jul_08_1503,None,SSVP5_75,001,bill,
13,0,13,0,26,0,26,0,1404857146.49000,5,2014_Jul_08_1503,None,SSVP5_75,001,bill,
13,0,13,0,27,0,27,0,1404857146.61600,5,2014_Jul_08_1503,None,SSVP5_75,001,bill,
13,0,13,0,28,0,28,0,1404857146.74100,5,2014_Jul_08_1503,None,SSVP5_75,001,bill,
13,0,13,0,29,0,29,0,1404857146.86900,5,2014_Jul_08_1503,None,SSVP5_75,001,bill,
13,0,13,0,,,,,,,2014_Jul_08_1503,None,SSVP5_75,001,bill,
14,0,14,0,0,0,0,0,1404857149.97200,5,2014_Jul_08_1503,None,SSVP5_75,001,bill,
14,0,14,0,1,0,1,0,1404857150.09600,5,2014_Jul_08_1503,None,SSVP5_75,001,bill,
14,0,14,0,2,0,2,0,1404857150.22000,5,2014_Jul_08_1503,None,SSVP5_75,001,bill,
14,0,14,0,3,0,3,0,1404857150.34800,5,2014_Jul_08_1503,None,SSVP5_75,001,bill,
14,0,14,0,4,0,4,0,1404857150.47500,5,2014_Jul_08_1503,None,SSVP5_75,001,bill,
14,0,14,0,5,0,5,0,1404857150.59500,5,2014_Jul_08_1503,None,SSVP5_75,001,bill,
14,0,14,0,6,0,6,0,1404857150.72100,5,2014_Jul_08_1503,None,SSVP5_75,001,bill,
14,0,14,0,7,0,7,0,1404857150.84800,5,2014_Jul_08_1503,None,SSVP5_75,001,bill,
14,0,14,0,8,0,8,0,1404857150.97600,5,2014_Jul_08_1503,None,SSVP5_75,001,bill,
14,0,14,0,9,0,9,0,1404857151.09800,5,2014_Jul_08_1503,None,SSVP5_75,001,bill,
14,0,14,0,10,0,10,0,1404857151.22300,5,2014_Jul_08_1503,None,SSVP5_75,001,bill,
14,0,14,0,11,0,11,0,1404857151.34900,5,2014_Jul_08_1503,None,SSVP5_75,001,bill,
14,0,14,0,12,0,12,0,1404857151.47700,5,2014_Jul_08_1503,None,SSVP5_75,001,bill,
14,0,14,0,13,0,13,0,1404857151.60800,5,2014_Jul_08_1503,None,SSVP5_75,001,bill,
14,0,14,0,14,0,14,0,1404857151.73200,5,2014_Jul_08_1503,None,SSVP5_75,001,bill,
14,0,14,0,15,0,15,0,1404857151.85600,5,2014_Jul_08_1503,None,SSVP5_75,001,bill,
14,0,14,0,16,0,16,0,1404857151.98300,5,2014_Jul_08_1503,None,SSVP5_75,001,bill,
14,0,14,0,17,0,17,0,1404857152.11000,5,2014_Jul_08_1503,None,SSVP5_75,001,bill,
14,0,14,0,18,0,18,0,1404857152.23200,5,2014_Jul_08_1503,None,SSVP5_75,001,bill,
14,0,14,0,19,0,19,0,1404857152.35600,5,2014_Jul_08_1503,None,SSVP5_75,001,bill,
14,0,14,0,20,0,20,0,1404857152.48400,5,2014_Jul_08_1503,None,SSVP5_75,001,bill,
14,0,14,0,21,0,21,0,1404857152.61000,5,2014_Jul_08_1503,None,SSVP5_75,001,bill,
14,0,14,0,22,0,22,0,1404857152.73200,5,2014_Jul_08_1503,None,SSVP5_75,001,bill,
14,0,14,0,23,0,23,0,1404857152.85700,5,2014_Jul_08_1503,None,SSVP5_75,001,bill,
14,0,14,0,24,0,24,0,1404857152.98500,5,2014_Jul_08_1503,None,SSVP5_75,001,bill,
14,0,14,0,25,0,25,0,1404857153.11200,5,2014_Jul_08_1503,None,SSVP5_75,001,bill,
14,0,14,0,26,0,26,0,1404857153.23300,5,2014_Jul_08_1503,None,SSVP5_75,001,bill,
14,0,14,0,27,0,27,0,1404857153.35800,5,2014_Jul_08_1503,None,SSVP5_75,001,bill,
14,0,14,0,28,0,28,0,1404857153.48500,5,2014_Jul_08_1503,None,SSVP5_75,001,bill,
14,0,14,0,29,0,29,0,1404857153.61300,5,2014_Jul_08_1503,None,SSVP5_75,001,bill,
14,0,14,0,,,,,,,2014_Jul_08_1503,None,SSVP5_75,001,bill,
15,0,15,0,0,0,0,0,1404857156.72900,5,2014_Jul_08_1503,None,SSVP5_75,001,bill,
15,0,15,0,1,0,1,0,1404857156.85600,5,2014_Jul_08_1503,None,SSVP5_75,001,bill,
15,0,15,0,2,0,2,0,1404857156.98300,5,2014_Jul_08_1503,None,SSVP5_75,001,bill,
15,0,15,0,3,0,3,0,1404857157.10500,5,2014_Jul_08_1503,None,SSVP5_75,001,bill,
15,0,15,0,4,0,4,0,1404857157.22900,5,2014_Jul_08_1503,None,SSVP5_75,001,bill,
15,0,15,0,5,0,5,0,1404857157.35700,5,2014_Jul_08_1503,None,SSVP5_75,001,bill,
15,0,15,0,6,0,6,0,1404857157.48800,5,2014_Jul_08_1503,None,SSVP5_75,001,bill,
15,0,15,0,7,0,7,0,1404857157.61800,5,2014_Jul_08_1503,None,SSVP5_75,001,bill,
15,0,15,0,8,0,8,0,1404857157.73800,5,2014_Jul_08_1503,None,SSVP5_75,001,bill,
15,0,15,0,9,0,9,0,1404857157.86300,5,2014_Jul_08_1503,None,SSVP5_75,001,bill,
15,0,15,0,10,0,10,0,1404857157.99100,5,2014_Jul_08_1503,None,SSVP5_75,001,bill,
15,0,15,0,11,0,11,0,1404857158.11900,5,2014_Jul_08_1503,None,SSVP5_75,001,bill,
15,0,15,0,12,0,12,0,1404857158.25000,5,2014_Jul_08_1503,None,SSVP5_75,001,bill,
15,0,15,0,13,0,13,0,1404857158.37300,5,2014_Jul_08_1503,None,SSVP5_75,001,bill,
15,0,15,0,14,0,14,0,1404857158.49800,5,2014_Jul_08_1503,None,SSVP5_75,001,bill,
15,0,15,0,15,0,15,0,1404857158.62600,5,2014_Jul_08_1503,None,SSVP5_75,001,bill,
15,0,15,0,16,0,16,0,1404857158.75800,5,2014_Jul_08_1503,None,SSVP5_75,001,bill,
15,0,15,0,17,0,17,0,1404857158.88600,5,2014_Jul_08_1503,None,SSVP5_75,001,bill,
15,0,15,0,18,0,18,0,1404857159.00800,5,2014_Jul_08_1503,None,SSVP5_75,001,bill,
15,0,15,0,19,0,19,0,1404857159.13100,5,2014_Jul_08_1503,None,SSVP5_75,001,bill,
15,0,15,0,20,0,20,0,1404857159.26000,5,2014_Jul_08_1503,None,SSVP5_75,001,bill,
15,0,15,0,21,0,21,0,1404857159.39000,5,2014_Jul_08_1503,None,SSVP5_75,001,bill,
15,0,15,0,22,0,22,0,1404857159.51900,5,2014_Jul_08_1503,None,SSVP5_75,001,bill,
15,0,15,0,23,0,23,0,1404857159.64200,5,2014_Jul_08_1503,None,SSVP5_75,001,bill,
15,0,15,0,24,0,24,0,1404857159.76600,5,2014_Jul_08_1503,None,SSVP5_75,001,bill,
15,0,15,0,25,0,25,0,1404857159.89400,5,2014_Jul_08_1503,None,SSVP5_75,001,bill,
15,0,15,0,26,0,26,0,1404857160.02200,5,2014_Jul_08_1503,None,SSVP5_75,001,bill,
15,0,15,0,27,0,27,0,1404857160.14300,5,2014_Jul_08_1503,None,SSVP5_75,001,bill,
15,0,15,0,28,0,28,0,1404857160.26700,5,2014_Jul_08_1503,None,SSVP5_75,001,bill,
15,0,15,0,29,0,29,0,1404857160.39400,5,2014_Jul_08_1503,None,SSVP5_75,001,bill,
15,0,15,0,,,,,,,2014_Jul_08_1503,None,SSVP5_75,001,bill,
16,0,16,0,0,0,0,0,1404857163.49900,5,2014_Jul_08_1503,None,SSVP5_75,001,bill,
16,0,16,0,1,0,1,0,1404857163.62700,5,2014_Jul_08_1503,None,SSVP5_75,001,bill,
16,0,16,0,2,0,2,0,1404857163.75700,5,2014_Jul_08_1503,None,SSVP5_75,001,bill,
16,0,16,0,3,0,3,0,1404857163.88000,5,2014_Jul_08_1503,None,SSVP5_75,001,bill,
16,0,16,0,4,0,4,0,1404857164.00600,5,2014_Jul_08_1503,None,SSVP5_75,001,bill,
16,0,16,0,5,0,5,0,1404857164.13100,5,2014_Jul_08_1503,None,SSVP5_75,001,bill,
16,0,16,0,6,0,6,0,1404857164.26000,5,2014_Jul_08_1503,None,SSVP5_75,001,bill,
16,0,16,0,7,0,7,0,1404857164.39000,5,2014_Jul_08_1503,None,SSVP5_75,001,bill,
16,0,16,0,8,0,8,0,1404857164.51400,5,2014_Jul_08_1503,None,SSVP5_75,001,bill,
16,0,16,0,9,0,9,0,1404857164.63700,5,2014_Jul_08_1503,None,SSVP5_75,001,bill,
16,0,16,0,10,0,10,0,1404857164.76500,5,2014_Jul_08_1503,None,SSVP5_75,001,bill,
16,0,16,0,11,0,11,0,1404857164.89400,5,2014_Jul_08_1503,None,SSVP5_75,001,bill,
16,0,16,0,12,0,12,0,1404857165.01700,5,2014_Jul_08_1503,None,SSVP5_75,001,bill,
16,0,16,0,13,0,13,0,1404857165.14100,5,2014_Jul_08_1503,None,SSVP5_75,001,bill,
16,0,16,0,14,0,14,0,1404857165.26900,5,2014_Jul_08_1503,None,SSVP5_75,001,bill,
16,0,16,0,15,0,15,0,1404857165.39700,5,2014_Jul_08_1503,None,SSVP5_75,001,bill,
16,0,16,0,16,0,16,0,1404857165.52700,5,2014_Jul_08_1503,None,SSVP5_75,001,bill,
16,0,16,0,17,0,17,0,1404857165.65000,5,2014_Jul_08_1503,None,SSVP5_75,001,bill,
16,0,16,0,18,0,18,0,1404857165.77700,5,2014_Jul_08_1503,None,SSVP5_75,001,bill,
16,0,16,0,19,0,19,0,1404857165.90300,5,2014_Jul_08_1503,None,SSVP5_75,001,bill,
16,0,16,0,20,0,20,0,1404857166.03000,5,2014_Jul_08_1503,None,SSVP5_75,001,bill,
16,0,16,0,21,0,21,0,1404857166.15200,5,2014_Jul_08_1503,None,SSVP5_75,001,bill,
16,0,16,0,22,0,22,0,1404857166.27500,5,2014_Jul_08_1503,None,SSVP5_75,001,bill,
16,0,16,0,23,0,23,0,1404857166.40300,5,2014_Jul_08_1503,None,SSVP5_75,001,bill,
16,0,16,0,24,0,24,0,1404857166.53200,5,2014_Jul_08_1503,None,SSVP5_75,001,bill,
16,0,16,0,25,0,25,0,1404857166.65500,5,2014_Jul_08_1503,None,SSVP5_75,001,bill,
16,0,16,0,26,0,26,0,1404857166.77700,5,2014_Jul_08_1503,None,SSVP5_75,001,bill,
16,0,16,0,27,0,27,0,1404857166.90400,5,2014_Jul_08_1503,None,SSVP5_75,001,bill,
16,0,16,0,28,0,28,0,1404857167.03100,5,2014_Jul_08_1503,None,SSVP5_75,001,bill,
16,0,16,0,29,0,29,0,1404857167.15300,5,2014_Jul_08_1503,None,SSVP5_75,001,bill,
16,0,16,0,,,,,,,2014_Jul_08_1503,None,SSVP5_75,001,bill,
17,0,17,0,0,0,0,0,1404857170.26900,5,2014_Jul_08_1503,None,SSVP5_75,001,bill,
17,0,17,0,1,0,1,0,1404857170.39100,5,2014_Jul_08_1503,None,SSVP5_75,001,bill,
17,0,17,0,2,0,2,0,1404857170.51500,5,2014_Jul_08_1503,None,SSVP5_75,001,bill,
17,0,17,0,3,0,3,0,1404857170.64100,5,2014_Jul_08_1503,None,SSVP5_75,001,bill,
17,0,17,0,4,0,4,0,1404857170.77000,5,2014_Jul_08_1503,None,SSVP5_75,001,bill,
17,0,17,0,5,0,5,0,1404857170.89300,5,2014_Jul_08_1503,None,SSVP5_75,001,bill,
17,0,17,0,6,0,6,0,1404857171.01700,5,2014_Jul_08_1503,None,SSVP5_75,001,bill,
17,0,17,0,7,0,7,0,1404857171.14300,5,2014_Jul_08_1503,None,SSVP5_75,001,bill,
17,0,17,0,8,0,8,0,1404857171.26900,5,2014_Jul_08_1503,None,SSVP5_75,001,bill,
17,0,17,0,9,0,9,0,1404857171.39200,5,2014_Jul_08_1503,None,SSVP5_75,001,bill,
17,0,17,0,10,0,10,0,1404857171.51600,5,2014_Jul_08_1503,None,SSVP5_75,001,bill,
17,0,17,0,11,0,11,0,1404857171.64400,5,2014_Jul_08_1503,None,SSVP5_75,001,bill,
17,0,17,0,12,0,12,0,1404857171.77000,5,2014_Jul_08_1503,None,SSVP5_75,001,bill,
17,0,17,0,13,0,13,0,1404857171.89200,5,2014_Jul_08_1503,None,SSVP5_75,001,bill,
17,0,17,0,14,0,14,0,1404857172.01600,5,2014_Jul_08_1503,None,SSVP5_75,001,bill,
17,0,17,0,15,0,15,0,1404857172.14500,5,2014_Jul_08_1503,None,SSVP5_75,001,bill,
17,0,17,0,16,0,16,0,1404857172.27100,5,2014_Jul_08_1503,None,SSVP5_75,001,bill,
17,0,17,0,17,0,17,0,1404857172.39200,5,2014_Jul_08_1503,None,SSVP5_75,001,bill,
17,0,17,0,18,0,18,0,1404857172.51700,5,2014_Jul_08_1503,None,SSVP5_75,001,bill,
17,0,17,0,19,0,19,0,1404857172.64500,5,2014_Jul_08_1503,None,SSVP5_75,001,bill,
17,0,17,0,20,0,20,0,1404857172.77200,5,2014_Jul_08_1503,None,SSVP5_75,001,bill,
17,0,17,0,21,0,21,0,1404857172.90400,5,2014_Jul_08_1503,None,SSVP5_75,001,bill,
17,0,17,0,22,0,22,0,1404857173.02600,5,2014_Jul_08_1503,None,SSVP5_75,001,bill,
17,0,17,0,23,0,23,0,1404857173.15000,5,2014_Jul_08_1503,None,SSVP5_75,001,bill,
17,0,17,0,24,0,24,0,1404857173.27900,5,2014_Jul_08_1503,None,SSVP5_75,001,bill,
17,0,17,0,25,0,25,0,1404857173.41200,5,2014_Jul_08_1503,None,SSVP5_75,001,bill,
17,0,17,0,26,0,26,0,1404857173.53900,5,2014_Jul_08_1503,None,SSVP5_75,001,bill,
17,0,17,0,27,0,27,0,1404857173.66100,5,2014_Jul_08_1503,None,SSVP5_75,001,bill,
17,0,17,0,28,0,28,0,1404857173.78400,5,2014_Jul_08_1503,None,SSVP5_75,001,bill,
17,0,17,0,29,0,29,0,1404857173.91100,5,2014_Jul_08_1503,None,SSVP5_75,001,bill,
17,0,17,0,,,,,,,2014_Jul_08_1503,None,SSVP5_75,001,bill,
18,0,18,0,0,0,0,0,1404857176.98300,5,2014_Jul_08_1503,None,SSVP5_75,001,bill,
18,0,18,0,1,0,1,0,1404857177.11000,5,2014_Jul_08_1503,None,SSVP5_75,001,bill,
18,0,18,0,2,0,2,0,1404857177.23300,5,2014_Jul_08_1503,None,SSVP5_75,001,bill,
18,0,18,0,3,0,3,0,1404857177.35800,5,2014_Jul_08_1503,None,SSVP5_75,001,bill,
18,0,18,0,4,0,4,0,1404857177.48500,5,2014_Jul_08_1503,None,SSVP5_75,001,bill,
18,0,18,0,5,0,5,0,1404857177.61200,5,2014_Jul_08_1503,None,SSVP5_75,001,bill,
18,0,18,0,6,0,6,0,1404857177.74500,5,2014_Jul_08_1503,None,SSVP5_75,001,bill,
18,0,18,0,7,0,7,0,1404857177.86700,5,2014_Jul_08_1503,None,SSVP5_75,001,bill,
18,0,18,0,8,0,8,0,1404857177.99400,5,2014_Jul_08_1503,None,SSVP5_75,001,bill,
18,0,18,0,9,0,9,0,1404857178.11900,5,2014_Jul_08_1503,None,SSVP5_75,001,bill,
18,0,18,0,10,0,10,0,1404857178.25000,5,2014_Jul_08_1503,None,SSVP5_75,001,bill,
18,0,18,0,11,0,11,0,1404857178.38000,5,2014_Jul_08_1503,None,SSVP5_75,001,bill,
18,0,18,0,12,0,12,0,1404857178.51200,5,2014_Jul_08_1503,None,SSVP5_75,001,bill,
18,0,18,0,13,0,13,0,1404857178.63500,5,2014_Jul_08_1503,None,SSVP5_75,001,bill,
18,0,18,0,14,0,14,0,1404857178.75900,5,2014_Jul_08_1503,None,SSVP5_75,001,bill,
18,0,18,0,15,0,15,0,1404857178.88500,5,2014_Jul_08_1503,None,SSVP5_75,001,bill,
18,0,18,0,16,0,16,0,1404857179.01400,5,2014_Jul_08_1503,None,SSVP5_75,001,bill,
18,0,18,0,17,0,17,0,1404857179.14700,5,2014_Jul_08_1503,None,SSVP5_75,001,bill,
18,0,18,0,18,0,18,0,1404857179.28000,5,2014_Jul_08_1503,None,SSVP5_75,001,bill,
18,0,18,0,19,0,19,0,1404857179.40300,5,2014_Jul_08_1503,None,SSVP5_75,001,bill,
18,0,18,0,20,0,20,0,1404857179.52700,5,2014_Jul_08_1503,None,SSVP5_75,001,bill,
18,0,18,0,21,0,21,0,1404857179.65400,5,2014_Jul_08_1503,None,SSVP5_75,001,bill,
18,0,18,0,22,0,22,0,1404857179.78700,5,2014_Jul_08_1503,None,SSVP5_75,001,bill,
18,0,18,0,23,0,23,0,1404857179.91500,5,2014_Jul_08_1503,None,SSVP5_75,001,bill,
18,0,18,0,24,0,24,0,1404857180.04900,5,2014_Jul_08_1503,None,SSVP5_75,001,bill,
18,0,18,0,25,0,25,0,1404857180.18300,5,2014_Jul_08_1503,None,SSVP5_75,001,bill,
18,0,18,0,26,0,26,0,1404857180.31400,5,2014_Jul_08_1503,None,SSVP5_75,001,bill,
18,0,18,0,27,0,27,0,1404857180.43800,5,2014_Jul_08_1503,None,SSVP5_75,001,bill,
18,0,18,0,28,0,28,0,1404857180.56200,5,2014_Jul_08_1503,None,SSVP5_75,001,bill,
18,0,18,0,29,0,29,0,1404857180.68900,5,2014_Jul_08_1503,None,SSVP5_75,001,bill,
18,0,18,0,,,,,,,2014_Jul_08_1503,None,SSVP5_75,001,bill,
19,0,19,0,0,0,0,0,1404857183.91800,5,2014_Jul_08_1503,None,SSVP5_75,001,bill,
19,0,19,0,1,0,1,0,1404857184.04500,5,2014_Jul_08_1503,None,SSVP5_75,001,bill,
19,0,19,0,2,0,2,0,1404857184.17800,5,2014_Jul_08_1503,None,SSVP5_75,001,bill,
19,0,19,0,3,0,3,0,1404857184.31500,5,2014_Jul_08_1503,None,SSVP5_75,001,bill,
19,0,19,0,4,0,4,0,1404857184.45600,5,2014_Jul_08_1503,None,SSVP5_75,001,bill,
19,0,19,0,5,0,5,0,1404857184.59000,5,2014_Jul_08_1503,None,SSVP5_75,001,bill,
19,0,19,0,6,0,6,0,1404857184.72400,5,2014_Jul_08_1503,None,SSVP5_75,001,bill,
19,0,19,0,7,0,7,0,1404857184.85700,5,2014_Jul_08_1503,None,SSVP5_75,001,bill,
19,0,19,0,8,0,8,0,1404857184.99100,5,2014_Jul_08_1503,None,SSVP5_75,001,bill,
19,0,19,0,9,0,9,0,1404857185.13400,5,2014_Jul_08_1503,None,SSVP5_75,001,bill,
19,0,19,0,10,0,10,0,1404857185.26700,5,2014_Jul_08_1503,None,SSVP5_75,001,bill,
19,0,19,0,11,0,11,0,1404857185.40100,5,2014_Jul_08_1503,None,SSVP5_75,001,bill,
19,0,19,0,12,0,12,0,1404857185.53500,5,2014_Jul_08_1503,None,SSVP5_75,001,bill,
19,0,19,0,13,0,13,0,1404857185.66900,5,2014_Jul_08_1503,None,SSVP5_75,001,bill,
19,0,19,0,14,0,14,0,1404857185.80100,5,2014_Jul_08_1503,None,SSVP5_75,001,bill,
19,0,19,0,15,0,15,0,1404857185.93100,5,2014_Jul_08_1503,None,SSVP5_75,001,bill,
19,0,19,0,16,0,16,0,1404857186.06400,5,2014_Jul_08_1503,None,SSVP5_75,001,bill,
19,0,19,0,17,0,17,0,1404857186.19700,5,2014_Jul_08_1503,None,SSVP5_75,001,bill,
19,0,19,0,18,0,18,0,1404857186.33100,5,2014_Jul_08_1503,None,SSVP5_75,001,bill,
19,0,19,0,19,0,19,0,1404857186.46400,5,2014_Jul_08_1503,None,SSVP5_75,001,bill,
19,0,19,0,20,0,20,0,1404857186.59800,5,2014_Jul_08_1503,None,SSVP5_75,001,bill,
19,0,19,0,21,0,21,0,1404857186.73200,5,2014_Jul_08_1503,None,SSVP5_75,001,bill,
19,0,19,0,22,0,22,0,1404857186.87100,5,2014_Jul_08_1503,None,SSVP5_75,001,bill,
19,0,19,0,23,0,23,0,1404857186.99900,5,2014_Jul_08_1503,None,SSVP5_75,001,bill,
19,0,19,0,24,0,24,0,1404857187.13200,5,2014_Jul_08_1503,None,SSVP5_75,001,bill,
19,0,19,0,25,0,25,0,1404857187.26600,5,2014_Jul_08_1503,None,SSVP5_75,001,bill,
19,0,19,0,26,0,26,0,1404857187.39900,5,2014_Jul_08_1503,None,SSVP5_75,001,bill,
19,0,19,0,27,0,27,0,1404857187.53300,5,2014_Jul_08_1503,None,SSVP5_75,001,bill,
19,0,19,0,28,0,28,0,1404857187.66600,5,2014_Jul_08_1503,None,SSVP5_75,001,bill,
19,0,19,0,29,0,29,0,1404857187.80400,5,2014_Jul_08_1503,None,SSVP5_75,001,bill,
19,0,19,0,,,,,,,2014_Jul_08_1503,None,SSVP5_75,001,bill,
20,0,20,0,0,0,0,0,1404857191.06100,5,2014_Jul_08_1503,None,SSVP5_75,001,bill,
20,0,20,0,1,0,1,0,1404857191.18700,5,2014_Jul_08_1503,None,SSVP5_75,001,bill,
20,0,20,0,2,0,2,0,1404857191.31700,5,2014_Jul_08_1503,None,SSVP5_75,001,bill,
20,0,20,0,3,0,3,0,1404857191.45100,5,2014_Jul_08_1503,None,SSVP5_75,001,bill,
20,0,20,0,4,0,4,0,1404857191.58000,5,2014_Jul_08_1503,None,SSVP5_75,001,bill,
20,0,20,0,5,0,5,0,1404857191.71000,5,2014_Jul_08_1503,None,SSVP5_75,001,bill,
20,0,20,0,6,0,6,0,1404857191.83800,5,2014_Jul_08_1503,None,SSVP5_75,001,bill,
20,0,20,0,7,0,7,0,1404857191.97200,5,2014_Jul_08_1503,None,SSVP5_75,001,bill,
20,0,20,0,8,0,8,0,1404857192.10500,5,2014_Jul_08_1503,None,SSVP5_75,001,bill,
20,0,20,0,9,0,9,0,1404857192.23900,5,2014_Jul_08_1503,None,SSVP5_75,001,bill,
20,0,20,0,10,0,10,0,1404857192.37200,5,2014_Jul_08_1503,None,SSVP5_75,001,bill,
20,0,20,0,11,0,11,0,1404857192.50600,5,2014_Jul_08_1503,None,SSVP5_75,001,bill,
20,0,20,0,12,0,12,0,1404857192.63400,5,2014_Jul_08_1503,None,SSVP5_75,001,bill,
20,0,20,0,13,0,13,0,1404857192.76400,5,2014_Jul_08_1503,None,SSVP5_75,001,bill,
20,0,20,0,14,0,14,0,1404857192.88500,5,2014_Jul_08_1503,None,SSVP5_75,001,bill,
20,0,20,0,15,0,15,0,1404857193.01000,5,2014_Jul_08_1503,None,SSVP5_75,001,bill,
20,0,20,0,16,0,16,0,1404857193.13700,5,2014_Jul_08_1503,None,SSVP5_75,001,bill,
20,0,20,0,17,0,17,0,1404857193.26400,5,2014_Jul_08_1503,None,SSVP5_75,001,bill,
20,0,20,0,18,0,18,0,1404857193.38600,5,2014_Jul_08_1503,None,SSVP5_75,001,bill,
20,0,20,0,19,0,19,0,1404857193.50900,5,2014_Jul_08_1503,None,SSVP5_75,001,bill,
20,0,20,0,20,0,20,0,1404857193.63700,5,2014_Jul_08_1503,None,SSVP5_75,001,bill,
20,0,20,0,21,0,21,0,1404857193.76500,5,2014_Jul_08_1503,None,SSVP5_75,001,bill,
20,0,20,0,22,0,22,0,1404857193.88700,5,2014_Jul_08_1503,None,SSVP5_75,001,bill,
20,0,20,0,23,0,23,0,1404857194.01100,5,2014_Jul_08_1503,None,SSVP5_75,001,bill,
20,0,20,0,24,0,24,0,1404857194.13900,5,2014_Jul_08_1503,None,SSVP5_75,001,bill,
20,0,20,0,25,0,25,0,1404857194.26700,5,2014_Jul_08_1503,None,SSVP5_75,001,bill,
20,0,20,0,26,0,26,0,1404857194.38800,5,2014_Jul_08_1503,None,SSVP5_75,001,bill,
20,0,20,0,27,0,27,0,1404857194.51200,5,2014_Jul_08_1503,None,SSVP5_75,001,bill,
20,0,20,0,28,0,28,0,1404857194.63900,5,2014_Jul_08_1503,None,SSVP5_75,001,bill,
20,0,20,0,29,0,29,0,1404857194.76700,5,2014_Jul_08_1503,None,SSVP5_75,001,bill,
20,0,20,0,,,,,,,2014_Jul_08_1503,None,SSVP5_75,001,bill,
21,0,21,0,0,0,0,0,1404857197.82800,5,2014_Jul_08_1503,None,SSVP5_75,001,bill,
21,0,21,0,1,0,1,0,1404857197.95200,5,2014_Jul_08_1503,None,SSVP5_75,001,bill,
21,0,21,0,2,0,2,0,1404857198.07900,5,2014_Jul_08_1503,None,SSVP5_75,001,bill,
21,0,21,0,3,0,3,0,1404857198.20700,5,2014_Jul_08_1503,None,SSVP5_75,001,bill,
21,0,21,0,4,0,4,0,1404857198.32800,5,2014_Jul_08_1503,None,SSVP5_75,001,bill,
21,0,21,0,5,0,5,0,1404857198.45100,5,2014_Jul_08_1503,None,SSVP5_75,001,bill,
21,0,21,0,6,0,6,0,1404857198.57900,5,2014_Jul_08_1503,None,SSVP5_75,001,bill,
21,0,21,0,7,0,7,0,1404857198.70700,5,2014_Jul_08_1503,None,SSVP5_75,001,bill,
21,0,21,0,8,0,8,0,1404857198.82800,5,2014_Jul_08_1503,None,SSVP5_75,001,bill,
21,0,21,0,9,0,9,0,1404857198.95200,5,2014_Jul_08_1503,None,SSVP5_75,001,bill,
21,0,21,0,10,0,10,0,1404857199.07900,5,2014_Jul_08_1503,None,SSVP5_75,001,bill,
21,0,21,0,11,0,11,0,1404857199.20800,5,2014_Jul_08_1503,None,SSVP5_75,001,bill,
21,0,21,0,12,0,12,0,1404857199.32800,5,2014_Jul_08_1503,None,SSVP5_75,001,bill,
21,0,21,0,13,0,13,0,1404857199.45300,5,2014_Jul_08_1503,None,SSVP5_75,001,bill,
21,0,21,0,14,0,14,0,1404857199.58000,5,2014_Jul_08_1503,None,SSVP5_75,001,bill,
21,0,21,0,15,0,15,0,1404857199.70800,5,2014_Jul_08_1503,None,SSVP5_75,001,bill,
21,0,21,0,16,0,16,0,1404857199.83000,5,2014_Jul_08_1503,None,SSVP5_75,001,bill,
21,0,21,0,17,0,17,0,1404857199.95400,5,2014_Jul_08_1503,None,SSVP5_75,001,bill,
21,0,21,0,18,0,18,0,1404857200.08300,5,2014_Jul_08_1503,None,SSVP5_75,001,bill,
21,0,21,0,19,0,19,0,1404857200.21700,5,2014_Jul_08_1503,None,SSVP5_75,001,bill,
21,0,21,0,20,0,20,0,1404857200.34400,5,2014_Jul_08_1503,None,SSVP5_75,001,bill,
21,0,21,0,21,0,21,0,1404857200.46500,5,2014_Jul_08_1503,None,SSVP5_75,001,bill,
21,0,21,0,22,0,22,0,1404857200.58800,5,2014_Jul_08_1503,None,SSVP5_75,001,bill,
21,0,21,0,23,0,23,0,1404857200.71600,5,2014_Jul_08_1503,None,SSVP5_75,001,bill,
21,0,21,0,24,0,24,0,1404857200.84300,5,2014_Jul_08_1503,None,SSVP5_75,001,bill,
21,0,21,0,25,0,25,0,1404857200.96500,5,2014_Jul_08_1503,None,SSVP5_75,001,bill,
21,0,21,0,26,0,26,0,1404857201.08900,5,2014_Jul_08_1503,None,SSVP5_75,001,bill,
21,0,21,0,27,0,27,0,1404857201.21600,5,2014_Jul_08_1503,None,SSVP5_75,001,bill,
21,0,21,0,28,0,28,0,1404857201.34400,5,2014_Jul_08_1503,None,SSVP5_75,001,bill,
21,0,21,0,29,0,29,0,1404857201.46500,5,2014_Jul_08_1503,None,SSVP5_75,001,bill,
21,0,21,0,,,,,,,2014_Jul_08_1503,None,SSVP5_75,001,bill,
22,0,22,0,0,0,0,0,1404857204.51300,5,2014_Jul_08_1503,None,SSVP5_75,001,bill,
22,0,22,0,1,0,1,0,1404857204.63500,5,2014_Jul_08_1503,None,SSVP5_75,001,bill,
22,0,22,0,2,0,2,0,1404857204.75600,5,2014_Jul_08_1503,None,SSVP5_75,001,bill,
22,0,22,0,3,0,3,0,1404857204.88300,5,2014_Jul_08_1503,None,SSVP5_75,001,bill,
22,0,22,0,4,0,4,0,1404857205.00400,5,2014_Jul_08_1503,None,SSVP5_75,001,bill,
22,0,22,0,5,0,5,0,1404857205.12800,5,2014_Jul_08_1503,None,SSVP5_75,001,bill,
22,0,22,0,6,0,6,0,1404857205.25500,5,2014_Jul_08_1503,None,SSVP5_75,001,bill,
22,0,22,0,7,0,7,0,1404857205.38200,5,2014_Jul_08_1503,None,SSVP5_75,001,bill,
22,0,22,0,8,0,8,0,1404857205.50300,5,2014_Jul_08_1503,None,SSVP5_75,001,bill,
22,0,22,0,9,0,9,0,1404857205.62800,5,2014_Jul_08_1503,None,SSVP5_75,001,bill,
22,0,22,0,10,0,10,0,1404857205.75400,5,2014_Jul_08_1503,None,SSVP5_75,001,bill,
22,0,22,0,11,0,11,0,1404857205.88200,5,2014_Jul_08_1503,None,SSVP5_75,001,bill,
22,0,22,0,12,0,12,0,1404857206.00300,5,2014_Jul_08_1503,None,SSVP5_75,001,bill,
22,0,22,0,13,0,13,0,1404857206.12700,5,2014_Jul_08_1503,None,SSVP5_75,001,bill,
22,0,22,0,14,0,14,0,1404857206.25100,5,2014_Jul_08_1503,None,SSVP5_75,001,bill,
22,0,22,0,15,0,15,0,1404857206.37100,5,2014_Jul_08_1503,None,SSVP5_75,001,bill,
22,0,22,0,16,0,16,0,1404857206.49200,5,2014_Jul_08_1503,None,SSVP5_75,001,bill,
22,0,22,0,17,0,17,0,1404857206.61700,5,2014_Jul_08_1503,None,SSVP5_75,001,bill,
22,0,22,0,18,0,18,0,1404857206.73800,5,2014_Jul_08_1503,None,SSVP5_75,001,bill,
22,0,22,0,19,0,19,0,1404857206.85900,5,2014_Jul_08_1503,None,SSVP5_75,001,bill,
22,0,22,0,20,0,20,0,1404857206.98500,5,2014_Jul_08_1503,None,SSVP5_75,001,bill,
22,0,22,0,21,0,21,0,1404857207.10500,5,2014_Jul_08_1503,None,SSVP5_75,001,bill,
22,0,22,0,22,0,22,0,1404857207.22600,5,2014_Jul_08_1503,None,SSVP5_75,001,bill,
22,0,22,0,23,0,23,0,1404857207.35200,5,2014_Jul_08_1503,None,SSVP5_75,001,bill,
22,0,22,0,24,0,24,0,1404857207.47200,5,2014_Jul_08_1503,None,SSVP5_75,001,bill,
22,0,22,0,25,0,25,0,1404857207.59300,5,2014_Jul_08_1503,None,SSVP5_75,001,bill,
22,0,22,0,26,0,26,0,1404857207.71900,5,2014_Jul_08_1503,None,SSVP5_75,001,bill,
22,0,22,0,27,0,27,0,1404857207.83900,5,2014_Jul_08_1503,None,SSVP5_75,001,bill,
22,0,22,0,28,0,28,0,1404857207.96000,5,2014_Jul_08_1503,None,SSVP5_75,001,bill,
22,0,22,0,29,0,29,0,1404857208.08600,5,2014_Jul_08_1503,None,SSVP5_75,001,bill,
22,0,22,0,,,,,,,2014_Jul_08_1503,None,SSVP5_75,001,bill,
23,0,23,0,0,0,0,0,1404857211.07700,5,2014_Jul_08_1503,None,SSVP5_75,001,bill,
23,0,23,0,1,0,1,0,1404857211.19800,5,2014_Jul_08_1503,None,SSVP5_75,001,bill,
23,0,23,0,2,0,2,0,1404857211.32200,5,2014_Jul_08_1503,None,SSVP5_75,001,bill,
23,0,23,0,3,0,3,0,1404857211.44000,5,2014_Jul_08_1503,None,SSVP5_75,001,bill,
23,0,23,0,4,0,4,0,1404857211.56200,5,2014_Jul_08_1503,None,SSVP5_75,001,bill,
23,0,23,0,5,0,5,0,1404857211.68200,5,2014_Jul_08_1503,None,SSVP5_75,001,bill,
23,0,23,0,6,0,6,0,1404857211.80300,5,2014_Jul_08_1503,None,SSVP5_75,001,bill,
23,0,23,0,7,0,7,0,1404857211.92800,5,2014_Jul_08_1503,None,SSVP5_75,001,bill,
23,0,23,0,8,0,8,0,1404857212.04700,5,2014_Jul_08_1503,None,SSVP5_75,001,bill,
23,0,23,0,9,0,9,0,1404857212.16900,5,2014_Jul_08_1503,None,SSVP5_75,001,bill,
23,0,23,0,10,0,10,0,1404857212.29400,5,2014_Jul_08_1503,None,SSVP5_75,001,bill,
23,0,23,0,11,0,11,0,1404857212.41200,5,2014_Jul_08_1503,None,SSVP5_75,001,bill,
23,0,23,0,12,0,12,0,1404857212.53300,5,2014_Jul_08_1503,None,SSVP5_75,001,bill,
23,0,23,0,13,0,13,0,1404857212.65700,5,2014_Jul_08_1503,None,SSVP5_75,001,bill,
23,0,23,0,14,0,14,0,1404857212.77500,5,2014_Jul_08_1503,None,SSVP5_75,001,bill,
23,0,23,0,15,0,15,0,1404857212.89700,5,2014_Jul_08_1503,None,SSVP5_75,001,bill,
23,0,23,0,16,0,16,0,1404857213.01600,5,2014_Jul_08_1503,None,SSVP5_75,001,bill,
23,0,23,0,17,0,17,0,1404857213.13800,5,2014_Jul_08_1503,None,SSVP5_75,001,bill,
23,0,23,0,18,0,18,0,1404857213.26200,5,2014_Jul_08_1503,None,SSVP5_75,001,bill,
23,0,23,0,19,0,19,0,1404857213.38000,5,2014_Jul_08_1503,None,SSVP5_75,001,bill,
23,0,23,0,20,0,20,0,1404857213.50100,5,2014_Jul_08_1503,None,SSVP5_75,001,bill,
23,0,23,0,21,0,21,0,1404857213.62500,5,2014_Jul_08_1503,None,SSVP5_75,001,bill,
23,0,23,0,22,0,22,0,1404857213.74200,5,2014_Jul_08_1503,None,SSVP5_75,001,bill,
23,0,23,0,23,0,23,0,1404857213.86500,5,2014_Jul_08_1503,None,SSVP5_75,001,bill,
23,0,23,0,24,0,24,0,1404857213.98300,5,2014_Jul_08_1503,None,SSVP5_75,001,bill,
23,0,23,0,25,0,25,0,1404857214.10600,5,2014_Jul_08_1503,None,SSVP5_75,001,bill,
23,0,23,0,26,0,26,0,1404857214.23000,5,2014_Jul_08_1503,None,SSVP5_75,001,bill,
23,0,23,0,27,0,27,0,1404857214.34800,5,2014_Jul_08_1503,None,SSVP5_75,001,bill,
23,0,23,0,28,0,28,0,1404857214.46900,5,2014_Jul_08_1503,None,SSVP5_75,001,bill,
23,0,23,0,29,0,29,0,1404857214.59200,5,2014_Jul_08_1503,None,SSVP5_75,001,bill,
23,0,23,0,,,,,,,2014_Jul_08_1503,None,SSVP5_75,001,bill,
24,0,24,0,0,0,0,0,1404857217.57400,5,2014_Jul_08_1503,None,SSVP5_75,001,bill,
24,0,24,0,1,0,1,0,1404857217.69100,5,2014_Jul_08_1503,None,SSVP5_75,001,bill,
24,0,24,0,2,0,2,0,1404857217.81200,5,2014_Jul_08_1503,None,SSVP5_75,001,bill,
24,0,24,0,3,0,3,0,1404857217.93600,5,2014_Jul_08_1503,None,SSVP5_75,001,bill,
24,0,24,0,4,0,4,0,1404857218.05300,5,2014_Jul_08_1503,None,SSVP5_75,001,bill,
24,0,24,0,5,0,5,0,1404857218.17500,5,2014_Jul_08_1503,None,SSVP5_75,001,bill,
24,0,24,0,6,0,6,0,1404857218.29800,5,2014_Jul_08_1503,None,SSVP5_75,001,bill,
24,0,24,0,7,0,7,0,1404857218.41600,5,2014_Jul_08_1503,None,SSVP5_75,001,bill,
24,0,24,0,8,0,8,0,1404857218.53800,5,2014_Jul_08_1503,None,SSVP5_75,001,bill,
24,0,24,0,9,0,9,0,1404857218.65400,5,2014_Jul_08_1503,None,SSVP5_75,001,bill,
24,0,24,0,10,0,10,0,1404857218.77500,5,2014_Jul_08_1503,None,SSVP5_75,001,bill,
24,0,24,0,11,0,11,0,1404857218.89300,5,2014_Jul_08_1503,None,SSVP5_75,001,bill,
24,0,24,0,12,0,12,0,1404857219.01300,5,2014_Jul_08_1503,None,SSVP5_75,001,bill,
24,0,24,0,13,0,13,0,1404857219.13600,5,2014_Jul_08_1503,None,SSVP5_75,001,bill,
24,0,24,0,14,0,14,0,1404857219.25400,5,2014_Jul_08_1503,None,SSVP5_75,001,bill,
24,0,24,0,15,0,15,0,1404857219.37600,5,2014_Jul_08_1503,None,SSVP5_75,001,bill,
24,0,24,0,16,0,16,0,1404857219.49300,5,2014_Jul_08_1503,None,SSVP5_75,001,bill,
24,0,24,0,17,0,17,0,1404857219.61400,5,2014_Jul_08_1503,None,SSVP5_75,001,bill,
24,0,24,0,18,0,18,0,1404857219.73600,5,2014_Jul_08_1503,None,SSVP5_75,001,bill,
24,0,24,0,19,0,19,0,1404857219.85200,5,2014_Jul_08_1503,None,SSVP5_75,001,bill,
24,0,24,0,20,0,20,0,1404857219.97400,5,2014_Jul_08_1503,None,SSVP5_75,001,bill,
24,0,24,0,21,0,21,0,1404857220.09100,5,2014_Jul_08_1503,None,SSVP5_75,001,bill,
24,0,24,0,22,0,22,0,1404857220.21200,5,2014_Jul_08_1503,None,SSVP5_75,001,bill,
24,0,24,0,23,0,23,0,1404857220.33600,5,2014_Jul_08_1503,None,SSVP5_75,001,bill,
24,0,24,0,24,0,24,0,1404857220.45300,5,2014_Jul_08_1503,None,SSVP5_75,001,bill,
24,0,24,0,25,0,25,0,1404857220.57400,5,2014_Jul_08_1503,None,SSVP5_75,001,bill,
24,0,24,0,26,0,26,0,1404857220.69100,5,2014_Jul_08_1503,None,SSVP5_75,001,bill,
24,0,24,0,27,0,27,0,1404857220.81100,5,2014_Jul_08_1503,None,SSVP5_75,001,bill,
24,0,24,0,28,0,28,0,1404857220.93600,5,2014_Jul_08_1503,None,SSVP5_75,001,bill,
24,0,24,0,29,0,29,0,1404857221.05300,5,2014_Jul_08_1503,None,SSVP5_75,001,bill,
24,0,24,0,,,,,,,2014_Jul_08_1503,None,SSVP5_75,001,bill,
25,0,25,0,0,0,0,0,1404857224.02800,5,2014_Jul_08_1503,None,SSVP5_75,001,bill,
25,0,25,0,1,0,1,0,1404857224.14900,5,2014_Jul_08_1503,None,SSVP5_75,001,bill,
25,0,25,0,2,0,2,0,1404857224.26600,5,2014_Jul_08_1503,None,SSVP5_75,001,bill,
25,0,25,0,3,0,3,0,1404857224.38700,5,2014_Jul_08_1503,None,SSVP5_75,001,bill,
25,0,25,0,4,0,4,0,1404857224.50900,5,2014_Jul_08_1503,None,SSVP5_75,001,bill,
25,0,25,0,5,0,5,0,1404857224.62700,5,2014_Jul_08_1503,None,SSVP5_75,001,bill,
25,0,25,0,6,0,6,0,1404857224.74800,5,2014_Jul_08_1503,None,SSVP5_75,001,bill,
25,0,25,0,7,0,7,0,1404857224.86600,5,2014_Jul_08_1503,None,SSVP5_75,001,bill,
25,0,25,0,8,0,8,0,1404857224.98700,5,2014_Jul_08_1503,None,SSVP5_75,001,bill,
25,0,25,0,9,0,9,0,1404857225.11000,5,2014_Jul_08_1503,None,SSVP5_75,001,bill,
25,0,25,0,10,0,10,0,1404857225.22700,5,2014_Jul_08_1503,None,SSVP5_75,001,bill,
25,0,25,0,11,0,11,0,1404857225.34800,5,2014_Jul_08_1503,None,SSVP5_75,001,bill,
25,0,25,0,12,0,12,0,1404857225.46700,5,2014_Jul_08_1503,None,SSVP5_75,001,bill,
25,0,25,0,13,0,13,0,1404857225.58800,5,2014_Jul_08_1503,None,SSVP5_75,001,bill,
25,0,25,0,14,0,14,0,1404857225.71100,5,2014_Jul_08_1503,None,SSVP5_75,001,bill,
25,0,25,0,15,0,15,0,1404857225.82800,5,2014_Jul_08_1503,None,SSVP5_75,001,bill,
25,0,25,0,16,0,16,0,1404857225.94900,5,2014_Jul_08_1503,None,SSVP5_75,001,bill,
25,0,25,0,17,0,17,0,1404857226.06800,5,2014_Jul_08_1503,None,SSVP5_75,001,bill,
25,0,25,0,18,0,18,0,1404857226.18900,5,2014_Jul_08_1503,None,SSVP5_75,001,bill,
25,0,25,0,19,0,19,0,1404857226.31200,5,2014_Jul_08_1503,None,SSVP5_75,001,bill,
25,0,25,0,20,0,20,0,1404857226.43100,5,2014_Jul_08_1503,None,SSVP5_75,001,bill,
25,0,25,0,21,0,21,0,1404857226.55200,5,2014_Jul_08_1503,None,SSVP5_75,001,bill,
25,0,25,0,22,0,22,0,1404857226.67600,5,2014_Jul_08_1503,None,SSVP5_75,001,bill,
25,0,25,0,23,0,23,0,1404857226.79300,5,2014_Jul_08_1503,None,SSVP5_75,001,bill,
25,0,25,0,24,0,24,0,1404857226.91600,5,2014_Jul_08_1503,None,SSVP5_75,001,bill,
25,0,25,0,25,0,25,0,1404857227.03400,5,2014_Jul_08_1503,None,SSVP5_75,001,bill,
25,0,25,0,26,0,26,0,1404857227.15500,5,2014_Jul_08_1503,None,SSVP5_75,001,bill,
25,0,25,0,27,0,27,0,1404857227.27900,5,2014_Jul_08_1503,None,SSVP5_75,001,bill,
25,0,25,0,28,0,28,0,1404857227.39500,5,2014_Jul_08_1503,None,SSVP5_75,001,bill,
25,0,25,0,29,0,29,0,1404857227.51700,5,2014_Jul_08_1503,None,SSVP5_75,001,bill,
25,0,25,0,,,,,,,2014_Jul_08_1503,None,SSVP5_75,001,bill,
26,0,26,0,0,0,0,0,1404857230.49400,5,2014_Jul_08_1503,None,SSVP5_75,001,bill,
26,0,26,0,1,0,1,0,1404857230.61700,5,2014_Jul_08_1503,None,SSVP5_75,001,bill,
26,0,26,0,2,0,2,0,1404857230.73400,5,2014_Jul_08_1503,None,SSVP5_75,001,bill,
26,0,26,0,3,0,3,0,1404857230.85600,5,2014_Jul_08_1503,None,SSVP5_75,001,bill,
26,0,26,0,4,0,4,0,1404857230.97400,5,2014_Jul_08_1503,None,SSVP5_75,001,bill,
26,0,26,0,5,0,5,0,1404857231.09600,5,2014_Jul_08_1503,None,SSVP5_75,001,bill,
26,0,26,0,6,0,6,0,1404857231.21900,5,2014_Jul_08_1503,None,SSVP5_75,001,bill,
26,0,26,0,7,0,7,0,1404857231.33700,5,2014_Jul_08_1503,None,SSVP5_75,001,bill,
26,0,26,0,8,0,8,0,1404857231.45900,5,2014_Jul_08_1503,None,SSVP5_75,001,bill,
26,0,26,0,9,0,9,0,1404857231.58400,5,2014_Jul_08_1503,None,SSVP5_75,001,bill,
26,0,26,0,10,0,10,0,1404857231.70500,5,2014_Jul_08_1503,None,SSVP5_75,001,bill,
26,0,26,0,11,0,11,0,1404857231.83000,5,2014_Jul_08_1503,None,SSVP5_75,001,bill,
26,0,26,0,12,0,12,0,1404857231.95600,5,2014_Jul_08_1503,None,SSVP5_75,001,bill,
26,0,26,0,13,0,13,0,1404857232.08300,5,2014_Jul_08_1503,None,SSVP5_75,001,bill,
26,0,26,0,14,0,14,0,1404857232.20600,5,2014_Jul_08_1503,None,SSVP5_75,001,bill,
26,0,26,0,15,0,15,0,1404857232.32700,5,2014_Jul_08_1503,None,SSVP5_75,001,bill,
26,0,26,0,16,0,16,0,1404857232.45000,5,2014_Jul_08_1503,None,SSVP5_75,001,bill,
26,0,26,0,17,0,17,0,1404857232.56700,5,2014_Jul_08_1503,None,SSVP5_75,001,bill,
26,0,26,0,18,0,18,0,1404857232.69000,5,2014_Jul_08_1503,None,SSVP5_75,001,bill,
26,0,26,0,19,0,19,0,1404857232.80800,5,2014_Jul_08_1503,None,SSVP5_75,001,bill,
26,0,26,0,20,0,20,0,1404857232.92900,5,2014_Jul_08_1503,None,SSVP5_75,001,bill,
26,0,26,0,21,0,21,0,1404857233.05300,5,2014_Jul_08_1503,None,SSVP5_75,001,bill,
26,0,26,0,22,0,22,0,1404857233.16900,5,2014_Jul_08_1503,None,SSVP5_75,001,bill,
26,0,26,0,23,0,23,0,1404857233.29100,5,2014_Jul_08_1503,None,SSVP5_75,001,bill,
26,0,26,0,24,0,24,0,1404857233.40700,5,2014_Jul_08_1503,None,SSVP5_75,001,bill,
26,0,26,0,25,0,25,0,1404857233.52800,5,2014_Jul_08_1503,None,SSVP5_75,001,bill,
26,0,26,0,26,0,26,0,1404857233.65200,5,2014_Jul_08_1503,None,SSVP5_75,001,bill,
26,0,26,0,27,0,27,0,1404857233.76900,5,2014_Jul_08_1503,None,SSVP5_75,001,bill,
26,0,26,0,28,0,28,0,1404857233.89200,5,2014_Jul_08_1503,None,SSVP5_75,001,bill,
26,0,26,0,29,0,29,0,1404857234.01000,5,2014_Jul_08_1503,None,SSVP5_75,001,bill,
26,0,26,0,,,,,,,2014_Jul_08_1503,None,SSVP5_75,001,bill,
27,0,27,0,0,0,0,0,1404857236.99700,5,2014_Jul_08_1503,None,SSVP5_75,001,bill,
27,0,27,0,1,0,1,0,1404857237.11300,5,2014_Jul_08_1503,None,SSVP5_75,001,bill,
27,0,27,0,2,0,2,0,1404857237.23400,5,2014_Jul_08_1503,None,SSVP5_75,001,bill,
27,0,27,0,3,0,3,0,1404857237.35800,5,2014_Jul_08_1503,None,SSVP5_75,001,bill,
27,0,27,0,4,0,4,0,1404857237.47500,5,2014_Jul_08_1503,None,SSVP5_75,001,bill,
27,0,27,0,5,0,5,0,1404857237.59800,5,2014_Jul_08_1503,None,SSVP5_75,001,bill,
27,0,27,0,6,0,6,0,1404857237.71500,5,2014_Jul_08_1503,None,SSVP5_75,001,bill,
27,0,27,0,7,0,7,0,1404857237.83700,5,2014_Jul_08_1503,None,SSVP5_75,001,bill,
27,0,27,0,8,0,8,0,1404857237.96000,5,2014_Jul_08_1503,None,SSVP5_75,001,bill,
27,0,27,0,9,0,9,0,1404857238.07700,5,2014_Jul_08_1503,None,SSVP5_75,001,bill,
27,0,27,0,10,0,10,0,1404857238.19800,5,2014_Jul_08_1503,None,SSVP5_75,001,bill,
27,0,27,0,11,0,11,0,1404857238.31500,5,2014_Jul_08_1503,None,SSVP5_75,001,bill,
27,0,27,0,12,0,12,0,1404857238.43600,5,2014_Jul_08_1503,None,SSVP5_75,001,bill,
27,0,27,0,13,0,13,0,1404857238.55900,5,2014_Jul_08_1503,None,SSVP5_75,001,bill,
27,0,27,0,14,0,14,0,1404857238.67700,5,2014_Jul_08_1503,None,SSVP5_75,001,bill,
27,0,27,0,15,0,15,0,1404857238.79900,5,2014_Jul_08_1503,None,SSVP5_75,001,bill,
27,0,27,0,16,0,16,0,1404857238.91700,5,2014_Jul_08_1503,None,SSVP5_75,001,bill,
27,0,27,0,17,0,17,0,1404857239.03800,5,2014_Jul_08_1503,None,SSVP5_75,001,bill,
27,0,27,0,18,0,18,0,1404857239.16200,5,2014_Jul_08_1503,None,SSVP5_75,001,bill,
27,0,27,0,19,0,19,0,1404857239.27800,5,2014_Jul_08_1503,None,SSVP5_75,001,bill,
27,0,27,0,20,0,20,0,1404857239.40000,5,2014_Jul_08_1503,None,SSVP5_75,001,bill,
27,0,27,0,21,0,21,0,1404857239.51700,5,2014_Jul_08_1503,None,SSVP5_75,001,bill,
27,0,27,0,22,0,22,0,1404857239.63700,5,2014_Jul_08_1503,None,SSVP5_75,001,bill,
27,0,27,0,23,0,23,0,1404857239.75500,5,2014_Jul_08_1503,None,SSVP5_75,001,bill,
27,0,27,0,24,0,24,0,1404857239.87500,5,2014_Jul_08_1503,None,SSVP5_75,001,bill,
27,0,27,0,25,0,25,0,1404857239.99900,5,2014_Jul_08_1503,None,SSVP5_75,001,bill,
27,0,27,0,26,0,26,0,1404857240.11700,5,2014_Jul_08_1503,None,SSVP5_75,001,bill,
27,0,27,0,27,0,27,0,1404857240.23800,5,2014_Jul_08_1503,None,SSVP5_75,001,bill,
27,0,27,0,28,0,28,0,1404857240.35600,5,2014_Jul_08_1503,None,SSVP5_75,001,bill,
27,0,27,0,29,0,29,0,1404857240.47600,5,2014_Jul_08_1503,None,SSVP5_75,001,bill,
27,0,27,0,,,,,,,2014_Jul_08_1503,None,SSVP5_75,001,bill,
28,0,28,0,0,0,0,0,1404857243.46700,5,2014_Jul_08_1503,None,SSVP5_75,001,bill,
28,0,28,0,1,0,1,0,1404857243.58400,5,2014_Jul_08_1503,None,SSVP5_75,001,bill,
28,0,28,0,2,0,2,0,1404857243.70600,5,2014_Jul_08_1503,None,SSVP5_75,001,bill,
28,0,28,0,3,0,3,0,1404857243.82300,5,2014_Jul_08_1503,None,SSVP5_75,001,bill,
28,0,28,0,4,0,4,0,1404857243.94400,5,2014_Jul_08_1503,None,SSVP5_75,001,bill,
28,0,28,0,5,0,5,0,1404857244.06800,5,2014_Jul_08_1503,None,SSVP5_75,001,bill,
28,0,28,0,6,0,6,0,1404857244.18400,5,2014_Jul_08_1503,None,SSVP5_75,001,bill,
28,0,28,0,7,0,7,0,1404857244.30600,5,2014_Jul_08_1503,None,SSVP5_75,001,bill,
28,0,28,0,8,0,8,0,1404857244.42300,5,2014_Jul_08_1503,None,SSVP5_75,001,bill,
28,0,28,0,9,0,9,0,1404857244.54400,5,2014_Jul_08_1503,None,SSVP5_75,001,bill,
28,0,28,0,10,0,10,0,1404857244.66700,5,2014_Jul_08_1503,None,SSVP5_75,001,bill,
28,0,28,0,11,0,11,0,1404857244.78400,5,2014_Jul_08_1503,None,SSVP5_75,001,bill,
28,0,28,0,12,0,12,0,1404857244.90700,5,2014_Jul_08_1503,None,SSVP5_75,001,bill,
28,0,28,0,13,0,13,0,1404857245.02400,5,2014_Jul_08_1503,None,SSVP5_75,001,bill,
28,0,28,0,14,0,14,0,1404857245.14400,5,2014_Jul_08_1503,None,SSVP5_75,001,bill,
28,0,28,0,15,0,15,0,1404857245.26200,5,2014_Jul_08_1503,None,SSVP5_75,001,bill,
28,0,28,0,16,0,16,0,1404857245.38200,5,2014_Jul_08_1503,None,SSVP5_75,001,bill,
28,0,28,0,17,0,17,0,1404857245.50500,5,2014_Jul_08_1503,None,SSVP5_75,001,bill,
28,0,28,0,18,0,18,0,1404857245.62400,5,2014_Jul_08_1503,None,SSVP5_75,001,bill,
28,0,28,0,19,0,19,0,1404857245.74500,5,2014_Jul_08_1503,None,SSVP5_75,001,bill,
28,0,28,0,20,0,20,0,1404857245.86900,5,2014_Jul_08_1503,None,SSVP5_75,001,bill,
28,0,28,0,21,0,21,0,1404857245.98700,5,2014_Jul_08_1503,None,SSVP5_75,001,bill,
28,0,28,0,22,0,22,0,1404857246.10900,5,2014_Jul_08_1503,None,SSVP5_75,001,bill,
28,0,28,0,23,0,23,0,1404857246.22600,5,2014_Jul_08_1503,None,SSVP5_75,001,bill,
28,0,28,0,24,0,24,0,1404857246.34700,5,2014_Jul_08_1503,None,SSVP5_75,001,bill,
28,0,28,0,25,0,25,0,1404857246.47100,5,2014_Jul_08_1503,None,SSVP5_75,001,bill,
28,0,28,0,26,0,26,0,1404857246.58700,5,2014_Jul_08_1503,None,SSVP5_75,001,bill,
28,0,28,0,27,0,27,0,1404857246.70900,5,2014_Jul_08_1503,None,SSVP5_75,001,bill,
28,0,28,0,28,0,28,0,1404857246.82600,5,2014_Jul_08_1503,None,SSVP5_75,001,bill,
28,0,28,0,29,0,29,0,1404857246.94700,5,2014_Jul_08_1503,None,SSVP5_75,001,bill,
28,0,28,0,,,,,,,2014_Jul_08_1503,None,SSVP5_75,001,bill,
29,0,29,0,0,0,0,0,1404857249.93300,5,2014_Jul_08_1503,None,SSVP5_75,001,bill,
29,0,29,0,1,0,1,0,1404857250.05400,5,2014_Jul_08_1503,None,SSVP5_75,001,bill,
29,0,29,0,2,0,2,0,1404857250.17700,5,2014_Jul_08_1503,None,SSVP5_75,001,bill,
29,0,29,0,3,0,3,0,1404857250.29300,5,2014_Jul_08_1503,None,SSVP5_75,001,bill,
29,0,29,0,4,0,4,0,1404857250.41400,5,2014_Jul_08_1503,None,SSVP5_75,001,bill,
29,0,29,0,5,0,5,0,1404857250.53100,5,2014_Jul_08_1503,None,SSVP5_75,001,bill,
29,0,29,0,6,0,6,0,1404857250.65200,5,2014_Jul_08_1503,None,SSVP5_75,001,bill,
29,0,29,0,7,0,7,0,1404857250.77500,5,2014_Jul_08_1503,None,SSVP5_75,001,bill,
29,0,29,0,8,0,8,0,1404857250.89100,5,2014_Jul_08_1503,None,SSVP5_75,001,bill,
29,0,29,0,9,0,9,0,1404857251.01500,5,2014_Jul_08_1503,None,SSVP5_75,001,bill,
29,0,29,0,10,0,10,0,1404857251.13200,5,2014_Jul_08_1503,None,SSVP5_75,001,bill,
29,0,29,0,11,0,11,0,1404857251.25300,5,2014_Jul_08_1503,None,SSVP5_75,001,bill,
29,0,29,0,12,0,12,0,1404857251.37700,5,2014_Jul_08_1503,None,SSVP5_75,001,bill,
29,0,29,0,13,0,13,0,1404857251.49400,5,2014_Jul_08_1503,None,SSVP5_75,001,bill,
29,0,29,0,14,0,14,0,1404857251.61700,5,2014_Jul_08_1503,None,SSVP5_75,001,bill,
29,0,29,0,15,0,15,0,1404857251.73600,5,2014_Jul_08_1503,None,SSVP5_75,001,bill,
29,0,29,0,16,0,16,0,1404857251.85700,5,2014_Jul_08_1503,None,SSVP5_75,001,bill,
29,0,29,0,17,0,17,0,1404857251.98200,5,2014_Jul_08_1503,None,SSVP5_75,001,bill,
29,0,29,0,18,0,18,0,1404857252.10000,5,2014_Jul_08_1503,None,SSVP5_75,001,bill,
29,0,29,0,19,0,19,0,1404857252.22100,5,2014_Jul_08_1503,None,SSVP5_75,001,bill,
29,0,29,0,20,0,20,0,1404857252.34500,5,2014_Jul_08_1503,None,SSVP5_75,001,bill,
29,0,29,0,21,0,21,0,1404857252.46200,5,2014_Jul_08_1503,None,SSVP5_75,001,bill,
29,0,29,0,22,0,22,0,1404857252.58500,5,2014_Jul_08_1503,None,SSVP5_75,001,bill,
29,0,29,0,23,0,23,0,1404857252.70400,5,2014_Jul_08_1503,None,SSVP5_75,001,bill,
29,0,29,0,24,0,24,0,1404857252.82700,5,2014_Jul_08_1503,None,SSVP5_75,001,bill,
29,0,29,0,25,0,25,0,1404857252.95100,5,2014_Jul_08_1503,None,SSVP5_75,001,bill,
29,0,29,0,26,0,26,0,1404857253.06900,5,2014_Jul_08_1503,None,SSVP5_75,001,bill,
29,0,29,0,27,0,27,0,1404857253.18900,5,2014_Jul_08_1503,None,SSVP5_75,001,bill,
29,0,29,0,28,0,28,0,1404857253.31400,5,2014_Jul_08_1503,None,SSVP5_75,001,bill,
29,0,29,0,29,0,29,0,1404857253.43100,5,2014_Jul_08_1503,None,SSVP5_75,001,bill,
29,0,29,0,,,,,,,2014_Jul_08_1503,None,SSVP5_75,001,bill,
30,0,30,0,0,0,0,0,1404857256.42200,5,2014_Jul_08_1503,None,SSVP5_75,001,bill,
30,0,30,0,1,0,1,0,1404857256.54100,5,2014_Jul_08_1503,None,SSVP5_75,001,bill,
30,0,30,0,2,0,2,0,1404857256.66400,5,2014_Jul_08_1503,None,SSVP5_75,001,bill,
30,0,30,0,3,0,3,0,1404857256.79000,5,2014_Jul_08_1503,None,SSVP5_75,001,bill,
30,0,30,0,4,0,4,0,1404857256.91100,5,2014_Jul_08_1503,None,SSVP5_75,001,bill,
30,0,30,0,5,0,5,0,1404857257.03300,5,2014_Jul_08_1503,None,SSVP5_75,001,bill,
30,0,30,0,6,0,6,0,1404857257.15800,5,2014_Jul_08_1503,None,SSVP5_75,001,bill,
30,0,30,0,7,0,7,0,1404857257.27900,5,2014_Jul_08_1503,None,SSVP5_75,001,bill,
30,0,30,0,8,0,8,0,1404857257.40000,5,2014_Jul_08_1503,None,SSVP5_75,001,bill,
30,0,30,0,9,0,9,0,1404857257.52500,5,2014_Jul_08_1503,None,SSVP5_75,001,bill,
30,0,30,0,10,0,10,0,1404857257.64600,5,2014_Jul_08_1503,None,SSVP5_75,001,bill,
30,0,30,0,11,0,11,0,1404857257.76700,5,2014_Jul_08_1503,None,SSVP5_75,001,bill,
30,0,30,0,12,0,12,0,1404857257.89300,5,2014_Jul_08_1503,None,SSVP5_75,001,bill,
30,0,30,0,13,0,13,0,1404857258.01300,5,2014_Jul_08_1503,None,SSVP5_75,001,bill,
30,0,30,0,14,0,14,0,1404857258.13400,5,2014_Jul_08_1503,None,SSVP5_75,001,bill,
30,0,30,0,15,0,15,0,1404857258.25900,5,2014_Jul_08_1503,None,SSVP5_75,001,bill,
30,0,30,0,16,0,16,0,1404857258.38000,5,2014_Jul_08_1503,None,SSVP5_75,001,bill,
30,0,30,0,17,0,17,0,1404857258.50100,5,2014_Jul_08_1503,None,SSVP5_75,001,bill,
30,0,30,0,18,0,18,0,1404857258.62600,5,2014_Jul_08_1503,None,SSVP5_75,001,bill,
30,0,30,0,19,0,19,0,1404857258.74700,5,2014_Jul_08_1503,None,SSVP5_75,001,bill,
30,0,30,0,20,0,20,0,1404857258.86800,5,2014_Jul_08_1503,None,SSVP5_75,001,bill,
30,0,30,0,21,0,21,0,1404857258.99400,5,2014_Jul_08_1503,None,SSVP5_75,001,bill,
30,0,30,0,22,0,22,0,1404857259.11400,5,2014_Jul_08_1503,None,SSVP5_75,001,bill,
30,0,30,0,23,0,23,0,1404857259.23600,5,2014_Jul_08_1503,None,SSVP5_75,001,bill,
30,0,30,0,24,0,24,0,1404857259.36100,5,2014_Jul_08_1503,None,SSVP5_75,001,bill,
30,0,30,0,25,0,25,0,1404857259.48100,5,2014_Jul_08_1503,None,SSVP5_75,001,bill,
30,0,30,0,26,0,26,0,1404857259.60300,5,2014_Jul_08_1503,None,SSVP5_75,001,bill,
30,0,30,0,27,0,27,0,1404857259.72800,5,2014_Jul_08_1503,None,SSVP5_75,001,bill,
30,0,30,0,28,0,28,0,1404857259.84900,5,2014_Jul_08_1503,None,SSVP5_75,001,bill,
30,0,30,0,29,0,29,0,1404857259.97000,5,2014_Jul_08_1503,None,SSVP5_75,001,bill,
30,0,30,0,,,,,,,2014_Jul_08_1503,None,SSVP5_75,001,bill,
31,0,31,0,0,0,0,0,1404857262.96600,5,2014_Jul_08_1503,None,SSVP5_75,001,bill,
31,0,31,0,1,0,1,0,1404857263.08600,5,2014_Jul_08_1503,None,SSVP5_75,001,bill,
31,0,31,0,2,0,2,0,1404857263.20700,5,2014_Jul_08_1503,None,SSVP5_75,001,bill,
31,0,31,0,3,0,3,0,1404857263.33300,5,2014_Jul_08_1503,None,SSVP5_75,001,bill,
31,0,31,0,4,0,4,0,1404857263.45300,5,2014_Jul_08_1503,None,SSVP5_75,001,bill,
31,0,31,0,5,0,5,0,1404857263.57400,5,2014_Jul_08_1503,None,SSVP5_75,001,bill,
31,0,31,0,6,0,6,0,1404857263.70000,5,2014_Jul_08_1503,None,SSVP5_75,001,bill,
31,0,31,0,7,0,7,0,1404857263.82100,5,2014_Jul_08_1503,None,SSVP5_75,001,bill,
31,0,31,0,8,0,8,0,1404857263.94100,5,2014_Jul_08_1503,None,SSVP5_75,001,bill,
31,0,31,0,9,0,9,0,1404857264.06700,5,2014_Jul_08_1503,None,SSVP5_75,001,bill,
31,0,31,0,10,0,10,0,1404857264.18800,5,2014_Jul_08_1503,None,SSVP5_75,001,bill,
31,0,31,0,11,0,11,0,1404857264.30900,5,2014_Jul_08_1503,None,SSVP5_75,001,bill,
31,0,31,0,12,0,12,0,1404857264.43400,5,2014_Jul_08_1503,None,SSVP5_75,001,bill,
31,0,31,0,13,0,13,0,1404857264.55400,5,2014_Jul_08_1503,None,SSVP5_75,001,bill,
31,0,31,0,14,0,14,0,1404857264.67600,5,2014_Jul_08_1503,None,SSVP5_75,001,bill,
31,0,31,0,15,0,15,0,1404857264.80200,5,2014_Jul_08_1503,None,SSVP5_75,001,bill,
31,0,31,0,16,0,16,0,1404857264.92900,5,2014_Jul_08_1503,None,SSVP5_75,001,bill,
31,0,31,0,17,0,17,0,1404857265.04900,5,2014_Jul_08_1503,None,SSVP5_75,001,bill,
31,0,31,0,18,0,18,0,1404857265.17100,5,2014_Jul_08_1503,None,SSVP5_75,001,bill,
31,0,31,0,19,0,19,0,1404857265.29700,5,2014_Jul_08_1503,None,SSVP5_75,001,bill,
31,0,31,0,20,0,20,0,1404857265.41700,5,2014_Jul_08_1503,None,SSVP5_75,001,bill,
31,0,31,0,21,0,21,0,1404857265.53900,5,2014_Jul_08_1503,None,SSVP5_75,001,bill,
31,0,31,0,22,0,22,0,1404857265.66500,5,2014_Jul_08_1503,None,SSVP5_75,001,bill,
31,0,31,0,23,0,23,0,1404857265.78500,5,2014_Jul_08_1503,None,SSVP5_75,001,bill,
31,0,31,0,24,0,24,0,1404857265.90600,5,2014_Jul_08_1503,None,SSVP5_75,001,bill,
31,0,31,0,25,0,25,0,1404857266.03200,5,2014_Jul_08_1503,None,SSVP5_75,001,bill,
31,0,31,0,26,0,26,0,1404857266.15200,5,2014_Jul_08_1503,None,SSVP5_75,001,bill,
31,0,31,0,27,0,27,0,1404857266.27400,5,2014_Jul_08_1503,None,SSVP5_75,001,bill,
31,0,31,0,28,0,28,0,1404857266.40000,5,2014_Jul_08_1503,None,SSVP5_75,001,bill,
31,0,31,0,29,0,29,0,1404857266.52000,5,2014_Jul_08_1503,None,SSVP5_75,001,bill,
31,0,31,0,,,,,,,2014_Jul_08_1503,None,SSVP5_75,001,bill,
32,0,32,0,0,0,0,0,1404857269.50800,5,2014_Jul_08_1503,None,SSVP5_75,001,bill,
32,0,32,0,1,0,1,0,1404857269.62800,5,2014_Jul_08_1503,None,SSVP5_75,001,bill,
32,0,32,0,2,0,2,0,1404857269.74900,5,2014_Jul_08_1503,None,SSVP5_75,001,bill,
32,0,32,0,3,0,3,0,1404857269.87400,5,2014_Jul_08_1503,None,SSVP5_75,001,bill,
32,0,32,0,4,0,4,0,1404857269.99600,5,2014_Jul_08_1503,None,SSVP5_75,001,bill,
32,0,32,0,5,0,5,0,1404857270.11700,5,2014_Jul_08_1503,None,SSVP5_75,001,bill,
32,0,32,0,6,0,6,0,1404857270.24300,5,2014_Jul_08_1503,None,SSVP5_75,001,bill,
32,0,32,0,7,0,7,0,1404857270.36300,5,2014_Jul_08_1503,None,SSVP5_75,001,bill,
32,0,32,0,8,0,8,0,1404857270.48400,5,2014_Jul_08_1503,None,SSVP5_75,001,bill,
32,0,32,0,9,0,9,0,1404857270.61000,5,2014_Jul_08_1503,None,SSVP5_75,001,bill,
32,0,32,0,10,0,10,0,1404857270.73000,5,2014_Jul_08_1503,None,SSVP5_75,001,bill,
32,0,32,0,11,0,11,0,1404857270.85100,5,2014_Jul_08_1503,None,SSVP5_75,001,bill,
32,0,32,0,12,0,12,0,1404857270.97800,5,2014_Jul_08_1503,None,SSVP5_75,001,bill,
32,0,32,0,13,0,13,0,1404857271.09800,5,2014_Jul_08_1503,None,SSVP5_75,001,bill,
32,0,32,0,14,0,14,0,1404857271.21900,5,2014_Jul_08_1503,None,SSVP5_75,001,bill,
32,0,32,0,15,0,15,0,1404857271.34400,5,2014_Jul_08_1503,None,SSVP5_75,001,bill,
32,0,32,0,16,0,16,0,1404857271.46500,5,2014_Jul_08_1503,None,SSVP5_75,001,bill,
32,0,32,0,17,0,17,0,1404857271.58600,5,2014_Jul_08_1503,None,SSVP5_75,001,bill,
32,0,32,0,18,0,18,0,1404857271.71100,5,2014_Jul_08_1503,None,SSVP5_75,001,bill,
32,0,32,0,19,0,19,0,1404857271.83200,5,2014_Jul_08_1503,None,SSVP5_75,001,bill,
32,0,32,0,20,0,20,0,1404857271.95300,5,2014_Jul_08_1503,None,SSVP5_75,001,bill,
32,0,32,0,21,0,21,0,1404857272.07900,5,2014_Jul_08_1503,None,SSVP5_75,001,bill,
32,0,32,0,22,0,22,0,1404857272.19900,5,2014_Jul_08_1503,None,SSVP5_75,001,bill,
32,0,32,0,23,0,23,0,1404857272.32000,5,2014_Jul_08_1503,None,SSVP5_75,001,bill,
32,0,32,0,24,0,24,0,1404857272.44600,5,2014_Jul_08_1503,None,SSVP5_75,001,bill,
32,0,32,0,25,0,25,0,1404857272.56600,5,2014_Jul_08_1503,None,SSVP5_75,001,bill,
32,0,32,0,26,0,26,0,1404857272.68800,5,2014_Jul_08_1503,None,SSVP5_75,001,bill,
32,0,32,0,27,0,27,0,1404857272.81300,5,2014_Jul_08_1503,None,SSVP5_75,001,bill,
32,0,32,0,28,0,28,0,1404857272.93300,5,2014_Jul_08_1503,None,SSVP5_75,001,bill,
32,0,32,0,29,0,29,0,1404857273.05400,5,2014_Jul_08_1503,None,SSVP5_75,001,bill,
32,0,32,0,,,,,,,2014_Jul_08_1503,None,SSVP5_75,001,bill,
33,0,33,0,0,0,0,0,1404857276.05100,5,2014_Jul_08_1503,None,SSVP5_75,001,bill,
33,0,33,0,1,0,1,0,1404857276.17100,5,2014_Jul_08_1503,None,SSVP5_75,001,bill,
33,0,33,0,2,0,2,0,1404857276.29200,5,2014_Jul_08_1503,None,SSVP5_75,001,bill,
33,0,33,0,3,0,3,0,1404857276.41800,5,2014_Jul_08_1503,None,SSVP5_75,001,bill,
33,0,33,0,4,0,4,0,1404857276.53800,5,2014_Jul_08_1503,None,SSVP5_75,001,bill,
33,0,33,0,5,0,5,0,1404857276.65900,5,2014_Jul_08_1503,None,SSVP5_75,001,bill,
33,0,33,0,6,0,6,0,1404857276.78500,5,2014_Jul_08_1503,None,SSVP5_75,001,bill,
33,0,33,0,7,0,7,0,1404857276.90500,5,2014_Jul_08_1503,None,SSVP5_75,001,bill,
33,0,33,0,8,0,8,0,1404857277.02600,5,2014_Jul_08_1503,None,SSVP5_75,001,bill,
33,0,33,0,9,0,9,0,1404857277.15300,5,2014_Jul_08_1503,None,SSVP5_75,001,bill,
33,0,33,0,10,0,10,0,1404857277.27900,5,2014_Jul_08_1503,None,SSVP5_75,001,bill,
33,0,33,0,11,0,11,0,1404857277.39800,5,2014_Jul_08_1503,None,SSVP5_75,001,bill,
33,0,33,0,12,0,12,0,1404857277.52000,5,2014_Jul_08_1503,None,SSVP5_75,001,bill,
33,0,33,0,13,0,13,0,1404857277.64000,5,2014_Jul_08_1503,None,SSVP5_75,001,bill,
33,0,33,0,14,0,14,0,1404857277.76100,5,2014_Jul_08_1503,None,SSVP5_75,001,bill,
33,0,33,0,15,0,15,0,1404857277.88700,5,2014_Jul_08_1503,None,SSVP5_75,001,bill,
33,0,33,0,16,0,16,0,1404857278.00700,5,2014_Jul_08_1503,None,SSVP5_75,001,bill,
33,0,33,0,17,0,17,0,1404857278.12800,5,2014_Jul_08_1503,None,SSVP5_75,001,bill,
33,0,33,0,18,0,18,0,1404857278.25300,5,2014_Jul_08_1503,None,SSVP5_75,001,bill,
33,0,33,0,19,0,19,0,1404857278.37400,5,2014_Jul_08_1503,None,SSVP5_75,001,bill,
33,0,33,0,20,0,20,0,1404857278.49500,5,2014_Jul_08_1503,None,SSVP5_75,001,bill,
33,0,33,0,21,0,21,0,1404857278.62000,5,2014_Jul_08_1503,None,SSVP5_75,001,bill,
33,0,33,0,22,0,22,0,1404857278.74100,5,2014_Jul_08_1503,None,SSVP5_75,001,bill,
33,0,33,0,23,0,23,0,1404857278.86200,5,2014_Jul_08_1503,None,SSVP5_75,001,bill,
33,0,33,0,24,0,24,0,1404857278.98800,5,2014_Jul_08_1503,None,SSVP5_75,001,bill,
33,0,33,0,25,0,25,0,1404857279.10800,5,2014_Jul_08_1503,None,SSVP5_75,001,bill,
33,0,33,0,26,0,26,0,1404857279.22900,5,2014_Jul_08_1503,None,SSVP5_75,001,bill,
33,0,33,0,27,0,27,0,1404857279.35500,5,2014_Jul_08_1503,None,SSVP5_75,001,bill,
33,0,33,0,28,0,28,0,1404857279.47500,5,2014_Jul_08_1503,None,SSVP5_75,001,bill,
33,0,33,0,29,0,29,0,1404857279.59600,5,2014_Jul_08_1503,None,SSVP5_75,001,bill,
33,0,33,0,,,,,,,2014_Jul_08_1503,None,SSVP5_75,001,bill,
34,0,34,0,0,0,0,0,1404857282.58900,5,2014_Jul_08_1503,None,SSVP5_75,001,bill,
34,0,34,0,1,0,1,0,1404857282.70800,5,2014_Jul_08_1503,None,SSVP5_75,001,bill,
34,0,34,0,2,0,2,0,1404857282.83000,5,2014_Jul_08_1503,None,SSVP5_75,001,bill,
34,0,34,0,3,0,3,0,1404857282.95500,5,2014_Jul_08_1503,None,SSVP5_75,001,bill,
34,0,34,0,4,0,4,0,1404857283.07500,5,2014_Jul_08_1503,None,SSVP5_75,001,bill,
34,0,34,0,5,0,5,0,1404857283.19700,5,2014_Jul_08_1503,None,SSVP5_75,001,bill,
34,0,34,0,6,0,6,0,1404857283.32200,5,2014_Jul_08_1503,None,SSVP5_75,001,bill,
34,0,34,0,7,0,7,0,1404857283.44100,5,2014_Jul_08_1503,None,SSVP5_75,001,bill,
34,0,34,0,8,0,8,0,1404857283.56300,5,2014_Jul_08_1503,None,SSVP5_75,001,bill,
34,0,34,0,9,0,9,0,1404857283.68900,5,2014_Jul_08_1503,None,SSVP5_75,001,bill,
34,0,34,0,10,0,10,0,1404857283.80800,5,2014_Jul_08_1503,None,SSVP5_75,001,bill,
34,0,34,0,11,0,11,0,1404857283.93000,5,2014_Jul_08_1503,None,SSVP5_75,001,bill,
34,0,34,0,12,0,12,0,1404857284.05500,5,2014_Jul_08_1503,None,SSVP5_75,001,bill,
34,0,34,0,13,0,13,0,1404857284.17300,5,2014_Jul_08_1503,None,SSVP5_75,001,bill,
34,0,34,0,14,0,14,0,1404857284.29500,5,2014_Jul_08_1503,None,SSVP5_75,001,bill,
34,0,34,0,15,0,15,0,1404857284.41500,5,2014_Jul_08_1503,None,SSVP5_75,001,bill,
34,0,34,0,16,0,16,0,1404857284.53600,5,2014_Jul_08_1503,None,SSVP5_75,001,bill,
34,0,34,0,17,0,17,0,1404857284.66200,5,2014_Jul_08_1503,None,SSVP5_75,001,bill,
34,0,34,0,18,0,18,0,1404857284.78300,5,2014_Jul_08_1503,None,SSVP5_75,001,bill,
34,0,34,0,19,0,19,0,1404857284.90300,5,2014_Jul_08_1503,None,SSVP5_75,001,bill,
34,0,34,0,20,0,20,0,1404857285.02900,5,2014_Jul_08_1503,None,SSVP5_75,001,bill,
34,0,34,0,21,0,21,0,1404857285.15000,5,2014_Jul_08_1503,None,SSVP5_75,001,bill,
34,0,34,0,22,0,22,0,1404857285.27100,5,2014_Jul_08_1503,None,SSVP5_75,001,bill,
34,0,34,0,23,0,23,0,1404857285.39600,5,2014_Jul_08_1503,None,SSVP5_75,001,bill,
34,0,34,0,24,0,24,0,1404857285.51700,5,2014_Jul_08_1503,None,SSVP5_75,001,bill,
34,0,34,0,25,0,25,0,1404857285.63800,5,2014_Jul_08_1503,None,SSVP5_75,001,bill,
34,0,34,0,26,0,26,0,1404857285.76300,5,2014_Jul_08_1503,None,SSVP5_75,001,bill,
34,0,34,0,27,0,27,0,1404857285.88400,5,2014_Jul_08_1503,None,SSVP5_75,001,bill,
34,0,34,0,28,0,28,0,1404857286.00500,5,2014_Jul_08_1503,None,SSVP5_75,001,bill,
34,0,34,0,29,0,29,0,1404857286.13000,5,2014_Jul_08_1503,None,SSVP5_75,001,bill,
34,0,34,0,,,,,,,2014_Jul_08_1503,None,SSVP5_75,001,bill,
35,0,35,0,0,0,0,0,1404857289.13000,5,2014_Jul_08_1503,None,SSVP5_75,001,bill,
35,0,35,0,1,0,1,0,1404857289.25000,5,2014_Jul_08_1503,None,SSVP5_75,001,bill,
35,0,35,0,2,0,2,0,1404857289.37200,5,2014_Jul_08_1503,None,SSVP5_75,001,bill,
35,0,35,0,3,0,3,0,1404857289.49800,5,2014_Jul_08_1503,None,SSVP5_75,001,bill,
35,0,35,0,4,0,4,0,1404857289.61800,5,2014_Jul_08_1503,None,SSVP5_75,001,bill,
35,0,35,0,5,0,5,0,1404857289.74000,5,2014_Jul_08_1503,None,SSVP5_75,001,bill,
35,0,35,0,6,0,6,0,1404857289.86500,5,2014_Jul_08_1503,None,SSVP5_75,001,bill,
35,0,35,0,7,0,7,0,1404857289.98500,5,2014_Jul_08_1503,None,SSVP5_75,001,bill,
35,0,35,0,8,0,8,0,1404857290.11000,5,2014_Jul_08_1503,None,SSVP5_75,001,bill,
35,0,35,0,9,0,9,0,1404857290.23700,5,2014_Jul_08_1503,None,SSVP5_75,001,bill,
35,0,35,0,10,0,10,0,1404857290.36400,5,2014_Jul_08_1503,None,SSVP5_75,001,bill,
35,0,35,0,11,0,11,0,1404857290.48400,5,2014_Jul_08_1503,None,SSVP5_75,001,bill,
35,0,35,0,12,0,12,0,1404857290.60700,5,2014_Jul_08_1503,None,SSVP5_75,001,bill,
35,0,35,0,13,0,13,0,1404857290.73200,5,2014_Jul_08_1503,None,SSVP5_75,001,bill,
35,0,35,0,14,0,14,0,1404857290.85000,5,2014_Jul_08_1503,None,SSVP5_75,001,bill,
35,0,35,0,15,0,15,0,1404857290.97200,5,2014_Jul_08_1503,None,SSVP5_75,001,bill,
35,0,35,0,16,0,16,0,1404857291.09200,5,2014_Jul_08_1503,None,SSVP5_75,001,bill,
35,0,35,0,17,0,17,0,1404857291.21300,5,2014_Jul_08_1503,None,SSVP5_75,001,bill,
35,0,35,0,18,0,18,0,1404857291.33800,5,2014_Jul_08_1503,None,SSVP5_75,001,bill,
35,0,35,0,19,0,19,0,1404857291.45900,5,2014_Jul_08_1503,None,SSVP5_75,001,bill,
35,0,35,0,20,0,20,0,1404857291.58000,5,2014_Jul_08_1503,None,SSVP5_75,001,bill,
35,0,35,0,21,0,21,0,1404857291.70500,5,2014_Jul_08_1503,None,SSVP5_75,001,bill,
35,0,35,0,22,0,22,0,1404857291.82600,5,2014_Jul_08_1503,None,SSVP5_75,001,bill,
35,0,35,0,23,0,23,0,1404857291.94700,5,2014_Jul_08_1503,None,SSVP5_75,001,bill,
35,0,35,0,24,0,24,0,1404857292.07300,5,2014_Jul_08_1503,None,SSVP5_75,001,bill,
35,0,35,0,25,0,25,0,1404857292.19300,5,2014_Jul_08_1503,None,SSVP5_75,001,bill,
35,0,35,0,26,0,26,0,1404857292.31400,5,2014_Jul_08_1503,None,SSVP5_75,001,bill,
35,0,35,0,27,0,27,0,1404857292.43900,5,2014_Jul_08_1503,None,SSVP5_75,001,bill,
35,0,35,0,28,0,28,0,1404857292.55600,5,2014_Jul_08_1503,None,SSVP5_75,001,bill,
35,0,35,0,29,0,29,0,1404857292.67700,5,2014_Jul_08_1503,None,SSVP5_75,001,bill,
35,0,35,0,,,,,,,2014_Jul_08_1503,None,SSVP5_75,001,bill,
36,0,36,0,0,0,0,0,1404857295.66400,5,2014_Jul_08_1503,None,SSVP5_75,001,bill,
36,0,36,0,1,0,1,0,1404857295.78500,5,2014_Jul_08_1503,None,SSVP5_75,001,bill,
36,0,36,0,2,0,2,0,1404857295.91000,5,2014_Jul_08_1503,None,SSVP5_75,001,bill,
36,0,36,0,3,0,3,0,1404857296.02700,5,2014_Jul_08_1503,None,SSVP5_75,001,bill,
36,0,36,0,4,0,4,0,1404857296.14800,5,2014_Jul_08_1503,None,SSVP5_75,001,bill,
36,0,36,0,5,0,5,0,1404857296.27300,5,2014_Jul_08_1503,None,SSVP5_75,001,bill,
36,0,36,0,6,0,6,0,1404857296.38900,5,2014_Jul_08_1503,None,SSVP5_75,001,bill,
36,0,36,0,7,0,7,0,1404857296.51100,5,2014_Jul_08_1503,None,SSVP5_75,001,bill,
36,0,36,0,8,0,8,0,1404857296.62800,5,2014_Jul_08_1503,None,SSVP5_75,001,bill,
36,0,36,0,9,0,9,0,1404857296.74900,5,2014_Jul_08_1503,None,SSVP5_75,001,bill,
36,0,36,0,10,0,10,0,1404857296.87200,5,2014_Jul_08_1503,None,SSVP5_75,001,bill,
36,0,36,0,11,0,11,0,1404857296.98900,5,2014_Jul_08_1503,None,SSVP5_75,001,bill,
36,0,36,0,12,0,12,0,1404857297.11200,5,2014_Jul_08_1503,None,SSVP5_75,001,bill,
36,0,36,0,13,0,13,0,1404857297.22800,5,2014_Jul_08_1503,None,SSVP5_75,001,bill,
36,0,36,0,14,0,14,0,1404857297.35000,5,2014_Jul_08_1503,None,SSVP5_75,001,bill,
36,0,36,0,15,0,15,0,1404857297.47300,5,2014_Jul_08_1503,None,SSVP5_75,001,bill,
36,0,36,0,16,0,16,0,1404857297.59000,5,2014_Jul_08_1503,None,SSVP5_75,001,bill,
36,0,36,0,17,0,17,0,1404857297.71300,5,2014_Jul_08_1503,None,SSVP5_75,001,bill,
36,0,36,0,18,0,18,0,1404857297.82900,5,2014_Jul_08_1503,None,SSVP5_75,001,bill,
36,0,36,0,19,0,19,0,1404857297.95000,5,2014_Jul_08_1503,None,SSVP5_75,001,bill,
36,0,36,0,20,0,20,0,1404857298.06800,5,2014_Jul_08_1503,None,SSVP5_75,001,bill,
36,0,36,0,21,0,21,0,1404857298.18800,5,2014_Jul_08_1503,None,SSVP5_75,001,bill,
36,0,36,0,22,0,22,0,1404857298.31000,5,2014_Jul_08_1503,None,SSVP5_75,001,bill,
36,0,36,0,23,0,23,0,1404857298.42800,5,2014_Jul_08_1503,None,SSVP5_75,001,bill,
36,0,36,0,24,0,24,0,1404857298.54900,5,2014_Jul_08_1503,None,SSVP5_75,001,bill,
36,0,36,0,25,0,25,0,1404857298.66700,5,2014_Jul_08_1503,None,SSVP5_75,001,bill,
36,0,36,0,26,0,26,0,1404857298.78900,5,2014_Jul_08_1503,None,SSVP5_75,001,bill,
36,0,36,0,27,0,27,0,1404857298.91200,5,2014_Jul_08_1503,None,SSVP5_75,001,bill,
36,0,36,0,28,0,28,0,1404857299.02900,5,2014_Jul_08_1503,None,SSVP5_75,001,bill,
36,0,36,0,29,0,29,0,1404857299.15100,5,2014_Jul_08_1503,None,SSVP5_75,001,bill,
36,0,36,0,,,,,,,2014_Jul_08_1503,None,SSVP5_75,001,bill,
37,0,37,0,0,0,0,0,1404857302.13900,5,2014_Jul_08_1503,None,SSVP5_75,001,bill,
37,0,37,0,1,0,1,0,1404857302.26000,5,2014_Jul_08_1503,None,SSVP5_75,001,bill,
37,0,37,0,2,0,2,0,1404857302.38300,5,2014_Jul_08_1503,None,SSVP5_75,001,bill,
37,0,37,0,3,0,3,0,1404857302.50100,5,2014_Jul_08_1503,None,SSVP5_75,001,bill,
37,0,37,0,4,0,4,0,1404857302.62300,5,2014_Jul_08_1503,None,SSVP5_75,001,bill,
37,0,37,0,5,0,5,0,1404857302.74000,5,2014_Jul_08_1503,None,SSVP5_75,001,bill,
37,0,37,0,6,0,6,0,1404857302.86100,5,2014_Jul_08_1503,None,SSVP5_75,001,bill,
37,0,37,0,7,0,7,0,1404857302.98400,5,2014_Jul_08_1503,None,SSVP5_75,001,bill,
37,0,37,0,8,0,8,0,1404857303.10300,5,2014_Jul_08_1503,None,SSVP5_75,001,bill,
37,0,37,0,9,0,9,0,1404857303.22400,5,2014_Jul_08_1503,None,SSVP5_75,001,bill,
37,0,37,0,10,0,10,0,1404857303.34100,5,2014_Jul_08_1503,None,SSVP5_75,001,bill,
37,0,37,0,11,0,11,0,1404857303.46100,5,2014_Jul_08_1503,None,SSVP5_75,001,bill,
37,0,37,0,12,0,12,0,1404857303.58500,5,2014_Jul_08_1503,None,SSVP5_75,001,bill,
37,0,37,0,13,0,13,0,1404857303.70300,5,2014_Jul_08_1503,None,SSVP5_75,001,bill,
37,0,37,0,14,0,14,0,1404857303.82500,5,2014_Jul_08_1503,None,SSVP5_75,001,bill,
37,0,37,0,15,0,15,0,1404857303.94200,5,2014_Jul_08_1503,None,SSVP5_75,001,bill,
37,0,37,0,16,0,16,0,1404857304.06200,5,2014_Jul_08_1503,None,SSVP5_75,001,bill,
37,0,37,0,17,0,17,0,1404857304.18600,5,2014_Jul_08_1503,None,SSVP5_75,001,bill,
37,0,37,0,18,0,18,0,1404857304.30400,5,2014_Jul_08_1503,None,SSVP5_75,001,bill,
37,0,37,0,19,0,19,0,1404857304.42500,5,2014_Jul_08_1503,None,SSVP5_75,001,bill,
37,0,37,0,20,0,20,0,1404857304.54300,5,2014_Jul_08_1503,None,SSVP5_75,001,bill,
37,0,37,0,21,0,21,0,1404857304.66300,5,2014_Jul_08_1503,None,SSVP5_75,001,bill,
37,0,37,0,22,0,22,0,1404857304.78500,5,2014_Jul_08_1503,None,SSVP5_75,001,bill,
37,0,37,0,23,0,23,0,1404857304.90300,5,2014_Jul_08_1503,None,SSVP5_75,001,bill,
37,0,37,0,24,0,24,0,1404857305.02500,5,2014_Jul_08_1503,None,SSVP5_75,001,bill,
37,0,37,0,25,0,25,0,1404857305.14400,5,2014_Jul_08_1503,None,SSVP5_75,001,bill,
37,0,37,0,26,0,26,0,1404857305.26500,5,2014_Jul_08_1503,None,SSVP5_75,001,bill,
37,0,37,0,27,0,27,0,1404857305.38700,5,2014_Jul_08_1503,None,SSVP5_75,001,bill,
37,0,37,0,28,0,28,0,1404857305.50400,5,2014_Jul_08_1503,None,SSVP5_75,001,bill,
37,0,37,0,29,0,29,0,1404857305.62500,5,2014_Jul_08_1503,None,SSVP5_75,001,bill,
37,0,37,0,,,,,,,2014_Jul_08_1503,None,SSVP5_75,001,bill,
38,0,38,0,0,0,0,0,1404857308.59900,5,2014_Jul_08_1503,None,SSVP5_75,001,bill,
38,0,38,0,1,0,1,0,1404857308.71600,5,2014_Jul_08_1503,None,SSVP5_75,001,bill,
38,0,38,0,2,0,2,0,1404857308.83600,5,2014_Jul_08_1503,None,SSVP5_75,001,bill,
38,0,38,0,3,0,3,0,1404857308.96000,5,2014_Jul_08_1503,None,SSVP5_75,001,bill,
38,0,38,0,4,0,4,0,1404857309.07800,5,2014_Jul_08_1503,None,SSVP5_75,001,bill,
38,0,38,0,5,0,5,0,1404857309.19900,5,2014_Jul_08_1503,None,SSVP5_75,001,bill,
38,0,38,0,6,0,6,0,1404857309.32300,5,2014_Jul_08_1503,None,SSVP5_75,001,bill,
38,0,38,0,7,0,7,0,1404857309.44100,5,2014_Jul_08_1503,None,SSVP5_75,001,bill,
38,0,38,0,8,0,8,0,1404857309.56300,5,2014_Jul_08_1503,None,SSVP5_75,001,bill,
38,0,38,0,9,0,9,0,1404857309.67900,5,2014_Jul_08_1503,None,SSVP5_75,001,bill,
38,0,38,0,10,0,10,0,1404857309.80000,5,2014_Jul_08_1503,None,SSVP5_75,001,bill,
38,0,38,0,11,0,11,0,1404857309.92400,5,2014_Jul_08_1503,None,SSVP5_75,001,bill,
38,0,38,0,12,0,12,0,1404857310.04100,5,2014_Jul_08_1503,None,SSVP5_75,001,bill,
38,0,38,0,13,0,13,0,1404857310.16400,5,2014_Jul_08_1503,None,SSVP5_75,001,bill,
38,0,38,0,14,0,14,0,1404857310.28000,5,2014_Jul_08_1503,None,SSVP5_75,001,bill,
38,0,38,0,15,0,15,0,1404857310.40100,5,2014_Jul_08_1503,None,SSVP5_75,001,bill,
38,0,38,0,16,0,16,0,1404857310.52500,5,2014_Jul_08_1503,None,SSVP5_75,001,bill,
38,0,38,0,17,0,17,0,1404857310.64200,5,2014_Jul_08_1503,None,SSVP5_75,001,bill,
38,0,38,0,18,0,18,0,1404857310.76500,5,2014_Jul_08_1503,None,SSVP5_75,001,bill,
38,0,38,0,19,0,19,0,1404857310.88300,5,2014_Jul_08_1503,None,SSVP5_75,001,bill,
38,0,38,0,20,0,20,0,1404857311.00600,5,2014_Jul_08_1503,None,SSVP5_75,001,bill,
38,0,38,0,21,0,21,0,1404857311.13300,5,2014_Jul_08_1503,None,SSVP5_75,001,bill,
38,0,38,0,22,0,22,0,1404857311.25900,5,2014_Jul_08_1503,None,SSVP5_75,001,bill,
38,0,38,0,23,0,23,0,1404857311.38000,5,2014_Jul_08_1503,None,SSVP5_75,001,bill,
38,0,38,0,24,0,24,0,1404857311.50200,5,2014_Jul_08_1503,None,SSVP5_75,001,bill,
38,0,38,0,25,0,25,0,1404857311.62000,5,2014_Jul_08_1503,None,SSVP5_75,001,bill,
38,0,38,0,26,0,26,0,1404857311.74000,5,2014_Jul_08_1503,None,SSVP5_75,001,bill,
38,0,38,0,27,0,27,0,1404857311.86700,5,2014_Jul_08_1503,None,SSVP5_75,001,bill,
38,0,38,0,28,0,28,0,1404857311.99400,5,2014_Jul_08_1503,None,SSVP5_75,001,bill,
38,0,38,0,29,0,29,0,1404857312.11200,5,2014_Jul_08_1503,None,SSVP5_75,001,bill,
38,0,38,0,,,,,,,2014_Jul_08_1503,None,SSVP5_75,001,bill,
39,0,39,0,0,0,0,0,1404857315.10600,5,2014_Jul_08_1503,None,SSVP5_75,001,bill,
39,0,39,0,1,0,1,0,1404857315.23100,5,2014_Jul_08_1503,None,SSVP5_75,001,bill,
39,0,39,0,2,0,2,0,1404857315.35300,5,2014_Jul_08_1503,None,SSVP5_75,001,bill,
39,0,39,0,3,0,3,0,1404857315.47500,5,2014_Jul_08_1503,None,SSVP5_75,001,bill,
39,0,39,0,4,0,4,0,1404857315.59900,5,2014_Jul_08_1503,None,SSVP5_75,001,bill,
39,0,39,0,5,0,5,0,1404857315.72100,5,2014_Jul_08_1503,None,SSVP5_75,001,bill,
39,0,39,0,6,0,6,0,1404857315.84200,5,2014_Jul_08_1503,None,SSVP5_75,001,bill,
39,0,39,0,7,0,7,0,1404857315.96800,5,2014_Jul_08_1503,None,SSVP5_75,001,bill,
39,0,39,0,8,0,8,0,1404857316.08800,5,2014_Jul_08_1503,None,SSVP5_75,001,bill,
39,0,39,0,9,0,9,0,1404857316.21300,5,2014_Jul_08_1503,None,SSVP5_75,001,bill,
39,0,39,0,10,0,10,0,1404857316.33800,5,2014_Jul_08_1503,None,SSVP5_75,001,bill,
39,0,39,0,11,0,11,0,1404857316.45800,5,2014_Jul_08_1503,None,SSVP5_75,001,bill,
39,0,39,0,12,0,12,0,1404857316.58100,5,2014_Jul_08_1503,None,SSVP5_75,001,bill,
39,0,39,0,13,0,13,0,1404857316.70700,5,2014_Jul_08_1503,None,SSVP5_75,001,bill,
39,0,39,0,14,0,14,0,1404857316.82700,5,2014_Jul_08_1503,None,SSVP5_75,001,bill,
39,0,39,0,15,0,15,0,1404857316.94800,5,2014_Jul_08_1503,None,SSVP5_75,001,bill,
39,0,39,0,16,0,16,0,1404857317.07300,5,2014_Jul_08_1503,None,SSVP5_75,001,bill,
39,0,39,0,17,0,17,0,1404857317.19000,5,2014_Jul_08_1503,None,SSVP5_75,001,bill,
39,0,39,0,18,0,18,0,1404857317.31400,5,2014_Jul_08_1503,None,SSVP5_75,001,bill,
39,0,39,0,19,0,19,0,1404857317.44000,5,2014_Jul_08_1503,None,SSVP5_75,001,bill,
39,0,39,0,20,0,20,0,1404857317.56000,5,2014_Jul_08_1503,None,SSVP5_75,001,bill,
39,0,39,0,21,0,21,0,1404857317.68200,5,2014_Jul_08_1503,None,SSVP5_75,001,bill,
39,0,39,0,22,0,22,0,1404857317.80500,5,2014_Jul_08_1503,None,SSVP5_75,001,bill,
39,0,39,0,23,0,23,0,1404857317.92300,5,2014_Jul_08_1503,None,SSVP5_75,001,bill,
39,0,39,0,24,0,24,0,1404857318.04400,5,2014_Jul_08_1503,None,SSVP5_75,001,bill,
39,0,39,0,25,0,25,0,1404857318.16800,5,2014_Jul_08_1503,None,SSVP5_75,001,bill,
39,0,39,0,26,0,26,0,1404857318.28600,5,2014_Jul_08_1503,None,SSVP5_75,001,bill,
39,0,39,0,27,0,27,0,1404857318.40800,5,2014_Jul_08_1503,None,SSVP5_75,001,bill,
39,0,39,0,28,0,28,0,1404857318.52800,5,2014_Jul_08_1503,None,SSVP5_75,001,bill,
39,0,39,0,29,0,29,0,1404857318.64900,5,2014_Jul_08_1503,None,SSVP5_75,001,bill,
39,0,39,0,,,,,,,2014_Jul_08_1503,None,SSVP5_75,001,bill,
40,0,40,0,0,0,0,0,1404857321.64400,5,2014_Jul_08_1503,None,SSVP5_75,001,bill,
40,0,40,0,1,0,1,0,1404857321.76100,5,2014_Jul_08_1503,None,SSVP5_75,001,bill,
40,0,40,0,2,0,2,0,1404857321.88300,5,2014_Jul_08_1503,None,SSVP5_75,001,bill,
40,0,40,0,3,0,3,0,1404857322.00700,5,2014_Jul_08_1503,None,SSVP5_75,001,bill,
40,0,40,0,4,0,4,0,1404857322.12400,5,2014_Jul_08_1503,None,SSVP5_75,001,bill,
40,0,40,0,5,0,5,0,1404857322.24700,5,2014_Jul_08_1503,None,SSVP5_75,001,bill,
40,0,40,0,6,0,6,0,1404857322.36400,5,2014_Jul_08_1503,None,SSVP5_75,001,bill,
40,0,40,0,7,0,7,0,1404857322.48600,5,2014_Jul_08_1503,None,SSVP5_75,001,bill,
40,0,40,0,8,0,8,0,1404857322.61000,5,2014_Jul_08_1503,None,SSVP5_75,001,bill,
40,0,40,0,9,0,9,0,1404857322.72700,5,2014_Jul_08_1503,None,SSVP5_75,001,bill,
40,0,40,0,10,0,10,0,1404857322.84800,5,2014_Jul_08_1503,None,SSVP5_75,001,bill,
40,0,40,0,11,0,11,0,1404857322.96600,5,2014_Jul_08_1503,None,SSVP5_75,001,bill,
40,0,40,0,12,0,12,0,1404857323.08700,5,2014_Jul_08_1503,None,SSVP5_75,001,bill,
40,0,40,0,13,0,13,0,1404857323.21000,5,2014_Jul_08_1503,None,SSVP5_75,001,bill,
40,0,40,0,14,0,14,0,1404857323.32700,5,2014_Jul_08_1503,None,SSVP5_75,001,bill,
40,0,40,0,15,0,15,0,1404857323.44900,5,2014_Jul_08_1503,None,SSVP5_75,001,bill,
40,0,40,0,16,0,16,0,1404857323.56500,5,2014_Jul_08_1503,None,SSVP5_75,001,bill,
40,0,40,0,17,0,17,0,1404857323.68600,5,2014_Jul_08_1503,None,SSVP5_75,001,bill,
40,0,40,0,18,0,18,0,1404857323.81000,5,2014_Jul_08_1503,None,SSVP5_75,001,bill,
40,0,40,0,19,0,19,0,1404857323.92700,5,2014_Jul_08_1503,None,SSVP5_75,001,bill,
40,0,40,0,20,0,20,0,1404857324.05000,5,2014_Jul_08_1503,None,SSVP5_75,001,bill,
40,0,40,0,21,0,21,0,1404857324.16700,5,2014_Jul_08_1503,None,SSVP5_75,001,bill,
40,0,40,0,22,0,22,0,1404857324.28900,5,2014_Jul_08_1503,None,SSVP5_75,001,bill,
40,0,40,0,23,0,23,0,1404857324.41300,5,2014_Jul_08_1503,None,SSVP5_75,001,bill,
40,0,40,0,24,0,24,0,1404857324.52900,5,2014_Jul_08_1503,None,SSVP5_75,001,bill,
40,0,40,0,25,0,25,0,1404857324.65100,5,2014_Jul_08_1503,None,SSVP5_75,001,bill,
40,0,40,0,26,0,26,0,1404857324.76800,5,2014_Jul_08_1503,None,SSVP5_75,001,bill,
40,0,40,0,27,0,27,0,1404857324.88900,5,2014_Jul_08_1503,None,SSVP5_75,001,bill,
40,0,40,0,28,0,28,0,1404857325.01400,5,2014_Jul_08_1503,None,SSVP5_75,001,bill,
40,0,40,0,29,0,29,0,1404857325.13000,5,2014_Jul_08_1503,None,SSVP5_75,001,bill,
40,0,40,0,,,,,,,2014_Jul_08_1503,None,SSVP5_75,001,bill,
41,0,41,0,0,0,0,0,1404857328.11700,5,2014_Jul_08_1503,None,SSVP5_75,001,bill,
41,0,41,0,1,0,1,0,1404857328.23300,5,2014_Jul_08_1503,None,SSVP5_75,001,bill,
41,0,41,0,2,0,2,0,1404857328.35500,5,2014_Jul_08_1503,None,SSVP5_75,001,bill,
41,0,41,0,3,0,3,0,1404857328.47200,5,2014_Jul_08_1503,None,SSVP5_75,001,bill,
41,0,41,0,4,0,4,0,1404857328.59300,5,2014_Jul_08_1503,None,SSVP5_75,001,bill,
